workerid,language,subjectCondition,player1color,player2color,player3color,sentence,condition,conditionOrder,trialnum,response,rt,trainingCorrect
1,English,only,purple,pink,tan,Player C made no shots,all-all-all,all-all-all,24,1,2661,
1,English,only,purple,lavender,darkorange,Player A tied with Player C,none-none-none,none-none-none,25,7,2798,
1,English,only,lightblue,purple,royalblue,Every player hit all of his shots,none-all-all,none-all-all,26,1,3181,
1,English,only,brown,midnight,lightorange,Every player hit none of his shots,none-all-all,all-none-all,27,1,5803,
1,English,only,seafoam,midnight,pink,We have a clear winner,none-half-half,none-half-half,20,1,3025,
1,English,only,purple,wheat,lightblue,Exactly one player hit none of his shots,half-half-all,half-all-half,21,1,4459,
1,English,only,darkorange,tan,lightorange,Most of the players missed shots,none-none-none,none-none-none,22,7,3011,
1,English,only,lightorange,royalblue,wheat,Player A tied with Player B,half-half-all,half-half-all,23,7,4502,
1,English,only,yellow,lightorange,brown,Player A placed second,none-half-half,half-none-half,28,2,5263,
1,English,only,brown,grey,seafoam,No player hit only some of his shots,none-none-none,none-none-none,1,2,13876,
1,English,only,brown,pink,yellow,Player B made no shots,all-all-all,all-all-all,0,1,6716,
1,English,only,seafoam,lightblue,grey,Player A shot perfectly,all-all-all,all-all-all,3,7,3676,
1,English,only,brown,grey,lavender,Player B placed second,none-half-all,half-none-all,2,1,7245,
1,English,only,yellow,seafoam,tan,No player hit none of his shots,none-all-all,all-all-none,5,1,8272,
1,English,only,lightorange,royalblue,yellow,Player A made no shots,none-none-none,none-none-none,4,7,3900,
1,English,only,yellow,lightblue,brown,Player C placed second,none-all-all,all-none-all,7,2,10474,
1,English,only,seafoam,purple,yellow,Exactly one player hit all of his shots,all-all-all,all-all-all,6,1,4622,
1,English,only,lavender,brown,lightblue,Player B shot perfectly,none-half-half,half-none-half,9,1,3306,
1,English,only,lightblue,brown,yellow,Someone did better than Player B,none-all-all,none-all-all,8,1,4679,
1,English,only,purple,pink,lightblue,Someone did better than Player A,all-all-all,all-all-all,11,1,3741,
1,English,only,royalblue,midnight,purple,Most of the players made shots,none-half-all,all-none-half,10,6,6925,
1,English,only,tan,pink,yellow,Player B tied with Player C,half-half-all,all-half-half,13,7,5196,
1,English,only,yellow,midnight,lightblue,We have a clear loser,all-all-all,all-all-all,12,1,4405,
1,English,only,lavender,seafoam,darkorange,Player C shot perfectly,none-half-all,half-all-none,15,1,3531,
1,English,only,yellow,lavender,grey,Every player hit only some of his shots,none-none-none,none-none-none,14,1,6784,
1,English,only,wheat,grey,seafoam,No player hit all of his shots,half-half-all,half-half-all,17,1,4764,
1,English,only,grey,lightblue,yellow,Someone did better than Player C,none-none-all,none-all-none,16,7,3565,
1,English,only,midnight,lightorange,brown,All the players are tied,half-half-half,half-half-half,19,7,3684,
1,English,only,wheat,purple,grey,Exactly one player hit only some of his shots,none-half-all,none-all-half,18,7,9017,
1,English,only,royalblue,brown,lavender,Player A was the star player of the round,most-none-all,most-none-all,-1,1,9265,yes
1,English,only,tan,lightorange,midnight,Player A made none of his baskets,all-none-few,all-none-few,-3,1,15619,yes
1,English,only,brown,pink,darkorange,Player C messed up,all-all-none,all-all-none,-2,6,11490,yes
2,English,focus,darkorange,yellow,brown,All the players are tied,none-none-none,none-none-none,24,7,2432,
2,English,focus,lightblue,wheat,darkorange,No player hit <b>ALL</b> of his shots,none-none-half,none-half-none,25,7,4886,
2,English,focus,purple,midnight,lightblue,Player A tied with Player C,half-half-half,half-half-half,26,7,5959,
2,English,focus,wheat,lightorange,royalblue,Player A tied with Player B,half-all-all,all-all-half,27,7,3284,
2,English,focus,wheat,midnight,royalblue,Player A placed second,none-none-half,none-half-none,20,1,4426,
2,English,focus,lightorange,yellow,lightblue,Exactly one player hit <b>NONE</b> of his shots,none-none-all,none-none-all,21,1,7531,
2,English,focus,seafoam,midnight,darkorange,Someone did better than Player A,none-none-none,none-none-none,22,1,3909,
2,English,focus,yellow,lightorange,darkorange,Player C placed second,none-half-all,half-all-none,23,1,3420,
2,English,focus,pink,royalblue,lightblue,Player B made no shots,none-all-all,none-all-all,28,1,2858,
2,English,focus,grey,darkorange,lavender,We have a clear winner,half-all-all,all-half-all,1,1,4375,
2,English,focus,royalblue,wheat,midnight,Player C made no shots,half-all-all,all-all-half,0,1,5025,
2,English,focus,darkorange,brown,grey,Most of the players missed shots,none-none-all,none-all-none,3,7,4846,
2,English,focus,pink,lavender,darkorange,No player hit <b>NONE</b> of his shots,none-none-all,none-none-all,2,1,5828,
2,English,focus,seafoam,royalblue,pink,Exactly one player hit <b>ALL</b> of his shots,none-none-none,none-none-none,5,1,4534,
2,English,focus,midnight,purple,lavender,We have a clear loser,half-half-half,half-half-half,4,1,3853,
2,English,focus,brown,lightblue,lavender,Player A shot perfectly,none-half-all,all-none-half,7,7,4361,
2,English,focus,seafoam,darkorange,lightorange,Every player hit <b>ALL</b> of his shots,half-half-all,half-half-all,6,1,3131,
2,English,focus,seafoam,brown,lavender,Every player hit <b>SOME</b> of his shots,half-all-all,all-all-half,9,7,5374,
2,English,focus,grey,yellow,lightblue,No player hit <b>SOME</b> of his shots,none-none-half,none-half-none,8,1,6548,
2,English,focus,lightblue,seafoam,royalblue,Exactly one player hit <b>SOME</b> of his shots,half-all-all,half-all-all,11,1,6037,
2,English,focus,lavender,pink,lightblue,Someone did better than Player C,none-half-all,all-half-none,10,7,3807,
2,English,focus,grey,wheat,midnight,Most of the players made shots,none-half-all,all-none-half,13,7,6526,
2,English,focus,grey,tan,seafoam,Player C shot perfectly,none-all-all,all-none-all,12,7,3028,
2,English,focus,pink,tan,wheat,Player B tied with Player C,none-none-none,none-none-none,15,7,4291,
2,English,focus,royalblue,midnight,yellow,Every player hit <b>NONE</b> of his shots,none-half-half,half-half-none,14,1,3999,
2,English,focus,yellow,pink,tan,Player A made no shots,half-all-all,half-all-all,17,1,3746,
2,English,focus,darkorange,midnight,royalblue,Player B shot perfectly,none-none-all,none-all-none,16,7,3201,
2,English,focus,grey,yellow,tan,Player B placed second,none-half-all,half-none-all,19,1,3832,
2,English,focus,pink,tan,royalblue,Someone did better than Player B,none-none-half,half-none-none,18,7,3809,
2,English,focus,darkorange,seafoam,lightorange,Player A was the star player of the round,most-none-all,most-none-all,-1,1,17658,no
2,English,focus,darkorange,midnight,royalblue,Player A made none of his baskets,all-none-few,all-none-few,-3,1,17054,yes
2,English,focus,midnight,purple,lightblue,Player C messed up,all-all-none,all-all-none,-2,7,7776,yes
3,english,focus,lightorange,darkorange,purple,Player B made no shots,half-all-all,all-all-half,24,1,5332,
3,english,focus,darkorange,brown,seafoam,Someone did better than Player C,none-half-half,none-half-half,25,1,4814,
3,english,focus,lightblue,tan,royalblue,Every player hit <b>ALL</b> of his shots,none-none-all,none-all-none,26,1,4934,
3,english,focus,purple,midnight,grey,No player hit <b>SOME</b> of his shots,none-none-all,all-none-none,27,1,5607,
3,english,focus,royalblue,brown,grey,Player B placed second,none-none-half,none-half-none,20,1,5679,
3,english,focus,grey,wheat,brown,We have a clear loser,none-all-all,all-none-all,21,7,5446,
3,english,focus,midnight,royalblue,tan,Player C placed second,none-all-all,all-all-none,22,1,5966,
3,english,focus,lavender,seafoam,yellow,Player B shot perfectly,half-half-half,half-half-half,23,1,5247,
3,english,focus,pink,midnight,wheat,No player hit <b>NONE</b> of his shots,none-none-half,none-none-half,28,1,3533,
3,english,focus,lightblue,purple,tan,Player A placed second,all-all-all,all-all-all,1,3,20452,
3,english,focus,lightblue,tan,pink,Player A made no shots,half-half-half,half-half-half,0,1,7376,
3,english,focus,midnight,lavender,brown,Player C shot perfectly,none-half-half,half-none-half,3,1,6965,
3,english,focus,brown,lightorange,seafoam,We have a clear winner,none-half-all,half-none-all,2,7,5006,
3,english,focus,seafoam,lightblue,yellow,Every player hit <b>SOME</b> of his shots,none-none-all,none-all-none,5,1,5071,
3,english,focus,wheat,seafoam,lightorange,Most of the players made shots,none-all-all,all-all-none,4,1,5511,
3,english,focus,purple,lightorange,tan,No player hit <b>ALL</b> of his shots,none-all-all,all-all-none,7,1,20775,
3,english,focus,darkorange,wheat,yellow,Someone did better than Player A,none-none-none,none-none-none,6,1,10187,
3,english,focus,lavender,yellow,darkorange,Player A tied with Player B,half-all-all,all-half-all,9,1,5879,
3,english,focus,pink,wheat,royalblue,Exactly one player hit <b>SOME</b> of his shots,none-half-all,all-half-none,8,1,22214,
3,english,focus,lightblue,darkorange,seafoam,Player A tied with Player C,all-all-all,all-all-all,11,7,5584,
3,english,focus,seafoam,pink,lightorange,All the players are tied,none-half-all,none-all-half,10,1,5134,
3,english,focus,grey,midnight,lavender,Every player hit <b>NONE</b> of his shots,none-none-none,none-none-none,13,7,4854,
3,english,focus,darkorange,midnight,purple,Most of the players missed shots,half-half-half,half-half-half,12,7,4702,
3,english,focus,lightblue,midnight,purple,Exactly one player hit <b>ALL</b> of his shots,half-half-all,half-half-all,15,7,10853,
3,english,focus,midnight,lightorange,brown,Player A shot perfectly,none-none-all,none-none-all,14,1,6493,
3,english,focus,darkorange,tan,yellow,Player C made no shots,none-none-all,none-all-none,17,7,5663,
3,english,focus,lightblue,darkorange,midnight,Exactly one player hit <b>NONE</b> of his shots,half-all-all,all-half-all,16,1,4870,
3,english,focus,lightorange,lightblue,pink,Someone did better than Player B,none-half-half,none-half-half,19,1,6918,
3,english,focus,midnight,royalblue,tan,Player B tied with Player C,half-half-all,all-half-half,18,7,4918,
3,english,focus,wheat,yellow,darkorange,Player A was the star player of the round,most-none-all,most-none-all,-1,1,11101,yes
3,english,focus,yellow,grey,midnight,Player A made none of his baskets,all-none-few,all-none-few,-3,1,12364,yes
3,english,focus,wheat,yellow,midnight,Player C messed up,all-all-none,all-all-none,-2,7,7051,yes
4,English,focus,darkorange,seafoam,grey,Exactly one player hit <b>ALL</b> of his shots,none-half-all,all-none-half,24,7,9277,
4,English,focus,lightblue,yellow,grey,Player A tied with Player C,none-half-half,none-half-half,25,1,6388,
4,English,focus,midnight,pink,brown,Most of the players made shots,none-half-all,half-all-none,26,7,4950,
4,English,focus,brown,pink,tan,Player B placed second,none-all-all,all-none-all,27,7,6652,
4,English,focus,midnight,lavender,seafoam,Player A made no shots,all-all-all,all-all-all,20,1,3638,
4,English,focus,royalblue,tan,yellow,Player A shot perfectly,half-half-half,half-half-half,21,1,7758,
4,English,focus,lightblue,wheat,midnight,Player C made no shots,none-none-half,none-half-none,22,7,2623,
4,English,focus,brown,tan,yellow,Every player hit <b>ALL</b> of his shots,none-none-half,none-none-half,23,1,9851,
4,English,focus,lavender,wheat,seafoam,Exactly one player hit <b>NONE</b> of his shots,none-half-all,half-none-all,28,7,5167,
4,English,focus,lavender,darkorange,purple,We have a clear winner,half-all-all,all-all-half,1,1,5764,
4,English,focus,seafoam,darkorange,pink,Player A placed second,none-all-all,all-none-all,0,4,8506,
4,English,focus,yellow,brown,darkorange,Player B tied with Player C,none-half-half,half-half-none,3,1,5309,
4,English,focus,brown,lavender,tan,No player hit <b>ALL</b> of his shots,none-none-half,none-none-half,2,7,6500,
4,English,focus,purple,lightorange,midnight,Player B shot perfectly,none-half-all,half-none-all,5,1,3271,
4,English,focus,lightorange,brown,seafoam,No player hit <b>SOME</b> of his shots,none-none-none,none-none-none,4,7,9922,
4,English,focus,lightorange,yellow,purple,We have a clear loser,none-none-none,none-none-none,7,1,4333,
4,English,focus,purple,grey,seafoam,All the players are tied,none-none-half,none-none-half,6,1,3892,
4,English,focus,lightorange,yellow,royalblue,Player A tied with Player B,none-none-none,none-none-none,9,5,5434,
4,English,focus,brown,lightorange,grey,Every player hit <b>NONE</b> of his shots,half-half-half,half-half-half,8,1,3991,
4,English,focus,midnight,lightblue,royalblue,Exactly one player hit <b>SOME</b> of his shots,none-all-all,all-none-all,11,1,5795,
4,English,focus,purple,brown,yellow,Someone did better than Player B,none-half-half,half-half-none,10,1,5344,
4,English,focus,seafoam,pink,lightblue,Someone did better than Player C,half-all-all,half-all-all,13,1,5622,
4,English,focus,midnight,wheat,lavender,Player C shot perfectly,none-half-half,none-half-half,12,1,2860,
4,English,focus,yellow,grey,wheat,No player hit <b>NONE</b> of his shots,none-none-none,none-none-none,15,1,5885,
4,English,focus,purple,brown,grey,Most of the players missed shots,half-half-all,all-half-half,14,6,4253,
4,English,focus,lavender,brown,yellow,Someone did better than Player A,half-half-all,half-half-all,17,7,3237,
4,English,focus,lightorange,wheat,darkorange,Every player hit <b>SOME</b> of his shots,half-all-all,all-half-all,16,7,3679,
4,English,focus,purple,darkorange,tan,Player B made no shots,none-half-all,half-none-all,19,7,3492,
4,English,focus,yellow,tan,purple,Player C placed second,half-all-all,all-half-all,18,3,7309,
4,English,focus,pink,brown,midnight,Player A was the star player of the round,most-none-all,most-none-all,-1,1,6744,yes
4,English,focus,lavender,darkorange,yellow,Player A made none of his baskets,all-none-few,all-none-few,-3,1,9567,yes
4,English,focus,pink,purple,royalblue,Player C messed up,all-all-none,all-all-none,-2,7,6560,yes
5,English,only,grey,midnight,brown,Someone did better than Player B,none-all-all,all-all-none,24,1,2635,
5,English,only,midnight,tan,pink,No player hit all of his shots,none-none-none,none-none-none,25,5,4328,
5,English,only,grey,pink,royalblue,Player B shot perfectly,none-all-all,none-all-all,26,7,2699,
5,English,only,seafoam,lightblue,lightorange,Most of the players missed shots,none-none-half,half-none-none,27,6,4872,
5,English,only,seafoam,darkorange,lightorange,Player C made no shots,half-half-half,half-half-half,20,1,2435,
5,English,only,lavender,wheat,midnight,We have a clear winner,half-half-half,half-half-half,21,1,3466,
5,English,only,lightorange,grey,wheat,No player hit none of his shots,half-half-all,all-half-half,22,7,4076,
5,English,only,pink,purple,tan,Every player hit none of his shots,all-all-all,all-all-all,23,1,4172,
5,English,only,lightblue,tan,yellow,Exactly one player hit all of his shots,half-all-all,all-all-half,28,1,2248,
5,English,only,seafoam,wheat,brown,Player A shot perfectly,none-none-none,none-none-none,1,1,3140,
5,English,only,tan,brown,purple,Player C placed second,none-half-all,half-all-none,0,1,7834,
5,English,only,brown,purple,lightblue,All the players are tied,none-half-half,none-half-half,3,1,2498,
5,English,only,lavender,royalblue,seafoam,No player hit only some of his shots,none-half-all,half-none-all,2,6,15121,
5,English,only,lavender,tan,seafoam,Exactly one player hit only some of his shots,half-half-all,half-all-half,5,1,4186,
5,English,only,royalblue,midnight,grey,Every player hit all of his shots,half-all-all,all-half-all,4,1,3106,
5,English,only,grey,lavender,darkorange,Player A tied with Player C,half-half-half,half-half-half,7,6,5889,
5,English,only,darkorange,seafoam,wheat,Someone did better than Player A,half-half-all,half-half-all,6,7,2607,
5,English,only,yellow,purple,grey,We have a clear loser,none-all-all,all-all-none,9,7,3357,
5,English,only,grey,midnight,royalblue,Player B tied with Player C,none-none-half,half-none-none,8,7,3638,
5,English,only,grey,lightblue,darkorange,Most of the players made shots,none-half-all,half-all-none,11,7,6998,
5,English,only,brown,royalblue,darkorange,Player B made no shots,none-half-half,half-none-half,10,7,2701,
5,English,only,royalblue,yellow,lavender,Player A made no shots,none-all-all,all-all-none,13,1,1858,
5,English,only,royalblue,pink,wheat,Player C shot perfectly,none-all-all,all-all-none,12,1,2060,
5,English,only,royalblue,grey,lightorange,Player B placed second,half-half-all,all-half-half,15,5,3606,
5,English,only,royalblue,midnight,grey,Exactly one player hit none of his shots,none-none-half,half-none-none,14,1,3201,
5,English,only,lightblue,pink,wheat,Player A placed second,half-half-half,half-half-half,17,1,4763,
5,English,only,purple,royalblue,darkorange,Every player hit only some of his shots,none-none-half,none-none-half,16,1,3153,
5,English,only,midnight,lightblue,wheat,Someone did better than Player C,none-none-half,none-half-none,19,6,4186,
5,English,only,darkorange,purple,royalblue,Player A tied with Player B,none-half-all,all-none-half,18,1,2700,
5,English,only,lavender,pink,royalblue,Player A was the star player of the round,most-none-all,most-none-all,-1,1,13341,yes
5,English,only,lightblue,lightorange,brown,Player A made none of his baskets,all-none-few,all-none-few,-3,1,10168,yes
5,English,only,lightorange,royalblue,tan,Player C messed up,all-all-none,all-all-none,-2,6,6139,yes
6,English,focus,darkorange,yellow,lavender,Player A placed second,none-half-half,half-half-none,24,4,9910,
6,English,focus,wheat,midnight,darkorange,Every player hit <b>ALL</b> of his shots,half-half-all,all-half-half,25,1,3722,
6,English,focus,tan,seafoam,lavender,Player B tied with Player C,none-none-all,all-none-none,26,7,2500,
6,English,focus,yellow,midnight,grey,Most of the players made shots,none-none-all,none-all-none,27,1,2478,
6,English,focus,lavender,yellow,darkorange,Player C shot perfectly,all-all-all,all-all-all,20,7,2621,
6,English,focus,purple,tan,brown,Every player hit <b>SOME</b> of his shots,none-all-all,all-none-all,21,1,3632,
6,English,focus,purple,pink,darkorange,Player A made no shots,none-half-half,half-half-none,22,1,2478,
6,English,focus,lightblue,brown,purple,Player B made no shots,none-all-all,all-none-all,23,7,2520,
6,English,focus,grey,brown,lightblue,No player hit <b>NONE</b> of his shots,none-half-all,none-half-all,28,1,2832,
6,English,focus,lavender,pink,royalblue,Someone did better than Player A,none-none-none,none-none-none,1,1,4793,
6,English,focus,brown,pink,wheat,No player hit <b>SOME</b> of his shots,none-none-none,none-none-none,0,7,5666,
6,English,focus,seafoam,lavender,purple,No player hit <b>ALL</b> of his shots,half-half-half,half-half-half,3,7,3254,
6,English,focus,seafoam,wheat,pink,Player C made no shots,none-none-all,all-none-none,2,7,3210,
6,English,focus,yellow,wheat,purple,Player C placed second,all-all-all,all-all-all,5,1,3583,
6,English,focus,lightblue,pink,midnight,Someone did better than Player B,none-all-all,none-all-all,4,1,4916,
6,English,focus,pink,brown,purple,Player A tied with Player C,none-half-all,none-all-half,7,1,3217,
6,English,focus,purple,lavender,lightorange,Every player hit <b>NONE</b> of his shots,half-half-half,half-half-half,6,1,3322,
6,English,focus,midnight,darkorange,brown,Exactly one player hit <b>NONE</b> of his shots,none-all-all,all-none-all,9,7,4087,
6,English,focus,pink,midnight,royalblue,Someone did better than Player C,all-all-all,all-all-all,8,1,3079,
6,English,focus,midnight,purple,royalblue,Most of the players missed shots,none-half-half,half-none-half,11,7,4852,
6,English,focus,tan,brown,darkorange,Exactly one player hit <b>SOME</b> of his shots,none-half-all,all-half-none,10,7,4072,
6,English,focus,purple,seafoam,lightblue,Exactly one player hit <b>ALL</b> of his shots,half-half-all,half-all-half,13,7,5000,
6,English,focus,purple,yellow,seafoam,Player A tied with Player B,half-all-all,all-half-all,12,1,4046,
6,English,focus,lightorange,brown,royalblue,All the players are tied,none-all-all,all-all-none,15,1,2911,
6,English,focus,lavender,wheat,tan,Player B shot perfectly,none-none-none,none-none-none,14,1,2541,
6,English,focus,lightorange,royalblue,lavender,Player A shot perfectly,none-half-half,half-none-half,17,1,1850,
6,English,focus,seafoam,grey,midnight,We have a clear loser,none-none-all,none-all-none,16,1,3444,
6,English,focus,seafoam,royalblue,grey,We have a clear winner,none-none-half,half-none-none,19,7,2737,
6,English,focus,midnight,seafoam,royalblue,Player B placed second,none-half-all,all-none-half,18,1,2362,
6,English,focus,brown,wheat,royalblue,Player A was the star player of the round,most-none-all,most-none-all,-1,1,6724,yes
6,English,focus,tan,pink,purple,Player A made none of his baskets,all-none-few,all-none-few,-3,1,17991,yes
6,English,focus,royalblue,darkorange,lightorange,Player C messed up,all-all-none,all-all-none,-2,7,5640,yes
7,English,focus,seafoam,yellow,wheat,Someone did better than Player B,all-all-all,all-all-all,24,1,4053,
7,English,focus,tan,purple,lavender,No player hit <b>SOME</b> of his shots,none-none-half,none-none-half,25,1,3689,
7,English,focus,midnight,tan,purple,Every player hit <b>NONE</b> of his shots,half-half-half,half-half-half,26,1,3063,
7,English,focus,purple,yellow,darkorange,No player hit <b>NONE</b> of his shots,half-half-all,half-all-half,27,6,10448,
7,English,focus,darkorange,lavender,midnight,Someone did better than Player C,none-none-half,half-none-none,20,7,4532,
7,English,focus,lavender,wheat,tan,No player hit <b>ALL</b> of his shots,half-half-half,half-half-half,21,7,3622,
7,English,focus,lavender,darkorange,royalblue,Player A placed second,none-all-all,all-none-all,22,1,3731,
7,English,focus,purple,royalblue,midnight,Exactly one player hit <b>SOME</b> of his shots,none-none-none,none-none-none,23,1,5072,
7,English,focus,pink,midnight,lightorange,Someone did better than Player A,none-all-all,all-all-none,28,1,5017,
7,English,focus,pink,brown,wheat,Player B made no shots,none-none-none,none-none-none,1,6,3608,
7,English,focus,midnight,lightblue,purple,All the players are tied,none-none-none,none-none-none,0,6,5493,
7,English,focus,yellow,lightblue,grey,Exactly one player hit <b>NONE</b> of his shots,none-none-half,none-half-none,3,1,5012,
7,English,focus,purple,lavender,lightblue,Exactly one player hit <b>ALL</b> of his shots,none-half-all,half-all-none,2,6,5021,
7,English,focus,lightblue,brown,purple,Player A shot perfectly,half-half-all,all-half-half,5,6,4028,
7,English,focus,pink,lightorange,purple,Player B shot perfectly,none-none-half,half-none-none,4,1,5036,
7,English,focus,lightorange,lightblue,yellow,We have a clear winner,none-half-half,none-half-half,7,1,5253,
7,English,focus,yellow,lavender,seafoam,Player A tied with Player B,none-half-half,half-half-none,6,6,3692,
7,English,focus,seafoam,lavender,purple,Player A made no shots,none-all-all,none-all-all,9,7,3445,
7,English,focus,lavender,brown,darkorange,Player C made no shots,none-none-half,none-half-none,8,7,4302,
7,English,focus,tan,lightblue,darkorange,Player A tied with Player C,all-all-all,all-all-all,11,4,6415,
7,English,focus,yellow,lightblue,tan,We have a clear loser,none-none-half,none-none-half,10,1,4016,
7,English,focus,tan,darkorange,pink,Player C shot perfectly,none-none-all,none-none-all,13,7,3489,
7,English,focus,lavender,lightorange,seafoam,Every player hit <b>ALL</b> of his shots,none-half-all,half-none-all,12,1,3486,
7,English,focus,yellow,lavender,purple,Player B tied with Player C,none-none-half,none-half-none,15,1,3646,
7,English,focus,midnight,seafoam,lavender,Most of the players made shots,none-half-all,all-none-half,14,5,7191,
7,English,focus,lavender,seafoam,darkorange,Player B placed second,none-all-all,all-all-none,17,1,5005,
7,English,focus,yellow,seafoam,darkorange,Every player hit <b>SOME</b> of his shots,half-all-all,half-all-all,16,3,7303,
7,English,focus,grey,seafoam,lavender,Player C placed second,none-none-none,none-none-none,19,1,2828,
7,English,focus,darkorange,lightorange,midnight,Most of the players missed shots,none-half-half,half-none-half,18,4,9776,
7,English,focus,tan,royalblue,darkorange,Player A was the star player of the round,most-none-all,most-none-all,-1,1,7951,yes
7,English,focus,seafoam,lightorange,brown,Player A made none of his baskets,all-none-few,all-none-few,-3,1,12883,yes
7,English,focus,seafoam,pink,darkorange,Player C messed up,all-all-none,all-all-none,-2,6,7312,yes
8,English,only,royalblue,purple,tan,Most of the players missed shots,none-half-all,none-all-half,24,3,4293,
8,English,only,purple,darkorange,royalblue,We have a clear winner,half-half-all,all-half-half,25,7,4755,
8,English,only,seafoam,lavender,lightblue,Player C shot perfectly,none-half-half,none-half-half,26,1,4126,
8,English,only,wheat,midnight,purple,Exactly one player hit all of his shots,half-all-all,all-all-half,27,1,4599,
8,English,only,tan,midnight,lightorange,Player A placed second,none-all-all,none-all-all,20,1,4044,
8,English,only,brown,lightorange,lavender,Player C placed second,none-half-all,half-all-none,21,1,6621,
8,English,only,brown,midnight,seafoam,Player A tied with Player C,all-all-all,all-all-all,22,6,3991,
8,English,only,lightorange,purple,wheat,Player A made no shots,half-half-all,all-half-half,23,1,2883,
8,English,only,midnight,darkorange,wheat,Player B placed second,none-all-all,none-all-all,28,2,4211,
8,English,only,lavender,purple,darkorange,No player hit none of his shots,half-half-all,half-half-all,1,2,16568,
8,English,only,brown,wheat,midnight,Player A tied with Player B,none-none-none,none-none-none,0,4,18631,
8,English,only,lightorange,brown,grey,Player B made no shots,half-half-half,half-half-half,3,1,6127,
8,English,only,midnight,tan,seafoam,Most of the players made shots,none-all-all,all-none-all,2,6,8438,
8,English,only,lightorange,darkorange,purple,All the players are tied,half-half-half,half-half-half,5,7,5068,
8,English,only,seafoam,purple,wheat,Exactly one player hit none of his shots,none-half-all,none-all-half,4,7,6909,
8,English,only,pink,yellow,grey,Every player hit all of his shots,all-all-all,all-all-all,7,7,5115,
8,English,only,yellow,lightorange,seafoam,We have a clear loser,none-half-half,half-half-none,6,7,5181,
8,English,only,royalblue,lavender,pink,No player hit only some of his shots,none-all-all,all-all-none,9,7,8319,
8,English,only,wheat,lavender,brown,Every player hit only some of his shots,none-all-all,none-all-all,8,1,12898,
8,English,only,darkorange,purple,lightorange,Someone did better than Player B,half-half-all,all-half-half,11,7,6099,
8,English,only,grey,seafoam,wheat,Player B shot perfectly,half-all-all,half-all-all,10,7,5080,
8,English,only,pink,grey,yellow,Someone did better than Player A,none-half-half,half-half-none,13,2,10314,
8,English,only,lightblue,lavender,seafoam,Player C made no shots,none-none-none,none-none-none,12,6,5632,
8,English,only,midnight,grey,purple,Someone did better than Player C,none-none-none,none-none-none,15,1,7594,
8,English,only,tan,darkorange,brown,Exactly one player hit only some of his shots,none-all-all,none-all-all,14,2,4196,
8,English,only,midnight,lightblue,darkorange,Every player hit none of his shots,all-all-all,all-all-all,17,1,27767,
8,English,only,lightblue,midnight,pink,No player hit all of his shots,none-all-all,all-all-none,16,1,3818,
8,English,only,royalblue,lavender,seafoam,Player A shot perfectly,none-none-half,half-none-none,19,1,4133,
8,English,only,wheat,darkorange,purple,Player B tied with Player C,none-all-all,all-all-none,18,1,21044,
8,English,only,wheat,lavender,lightblue,Player A was the star player of the round,most-none-all,most-none-all,-1,2,13825,yes
8,English,only,purple,pink,grey,Player A made none of his baskets,all-none-few,all-none-few,-3,1,20190,yes
8,English,only,lightblue,wheat,yellow,Player C messed up,all-all-none,all-all-none,-2,6,16310,no
9,english,only,midnight,lavender,seafoam,Most of the players missed shots,all-all-all,all-all-all,24,1,3343,
9,english,only,purple,midnight,pink,Someone did better than Player C,half-all-all,all-half-all,25,1,4602,
9,english,only,midnight,grey,brown,Player B made no shots,none-half-half,half-half-none,26,1,2727,
9,english,only,midnight,tan,lavender,Player A shot perfectly,none-none-none,none-none-none,27,1,2628,
9,english,only,purple,lightblue,royalblue,Someone did better than Player A,none-none-none,none-none-none,20,1,4469,
9,english,only,brown,wheat,yellow,Exactly one player hit only some of his shots,all-all-all,all-all-all,21,1,4289,
9,english,only,lavender,tan,royalblue,Player B tied with Player C,none-half-half,half-half-none,22,1,3518,
9,english,only,midnight,seafoam,darkorange,Exactly one player hit all of his shots,none-none-all,none-none-all,23,7,6485,
9,english,only,seafoam,midnight,lavender,We have a clear winner,none-half-all,all-none-half,28,7,3409,
9,english,only,royalblue,pink,tan,Most of the players made shots,none-half-all,all-none-half,1,4,8908,
9,english,only,lavender,darkorange,tan,Player B placed second,all-all-all,all-all-all,0,1,9008,
9,english,only,tan,royalblue,grey,Player A made no shots,half-half-half,half-half-half,3,1,5612,
9,english,only,lavender,lightblue,yellow,Player A tied with Player B,none-none-none,none-none-none,2,7,5740,
9,english,only,royalblue,seafoam,brown,Every player hit none of his shots,none-none-half,half-none-none,5,1,4173,
9,english,only,darkorange,midnight,grey,Exactly one player hit none of his shots,none-half-half,half-half-none,4,7,5405,
9,english,only,grey,brown,tan,Player B shot perfectly,none-none-all,none-none-all,7,1,4323,
9,english,only,yellow,grey,midnight,We have a clear loser,none-half-half,half-none-half,6,7,3952,
9,english,only,lavender,seafoam,midnight,Someone did better than Player B,none-none-none,none-none-none,9,1,6948,
9,english,only,lightorange,midnight,purple,Every player hit all of his shots,half-half-all,half-all-half,8,1,4666,
9,english,only,lightblue,royalblue,lightorange,No player hit all of his shots,half-half-half,half-half-half,11,7,3623,
9,english,only,darkorange,grey,lightorange,Every player hit only some of his shots,none-none-all,all-none-none,10,1,5293,
9,english,only,brown,darkorange,seafoam,Player A tied with Player C,none-half-all,all-half-none,13,1,3498,
9,english,only,wheat,lightblue,lightorange,No player hit none of his shots,none-all-all,none-all-all,12,1,8297,
9,english,only,lavender,midnight,grey,Player C placed second,none-half-half,half-none-half,15,1,8891,
9,english,only,lightorange,yellow,pink,Player C shot perfectly,none-half-all,half-none-all,14,7,4282,
9,english,only,pink,darkorange,seafoam,Player C made no shots,none-half-half,none-half-half,17,1,3529,
9,english,only,midnight,seafoam,wheat,Player A placed second,none-half-all,all-none-half,16,1,3794,
9,english,only,midnight,brown,grey,No player hit only some of his shots,none-none-half,none-half-none,19,1,4363,
9,english,only,royalblue,lightorange,lavender,All the players are tied,none-half-all,none-half-all,18,1,3049,
9,english,only,lightblue,midnight,brown,Player A was the star player of the round,most-none-all,most-none-all,-1,1,12346,no
9,english,only,brown,lavender,seafoam,Player A made none of his baskets,all-none-few,all-none-few,-3,1,12339,yes
9,english,only,tan,purple,seafoam,Player C messed up,all-all-none,all-all-none,-2,7,8320,yes
10,English,focus,purple,lavender,grey,Every player hit <b>ALL</b> of his shots,half-half-all,half-half-all,24,1,3452,
10,English,focus,lightorange,royalblue,seafoam,Player B made no shots,all-all-all,all-all-all,25,1,2191,
10,English,focus,darkorange,midnight,royalblue,Player A placed second,none-all-all,none-all-all,26,3,8591,
10,English,focus,brown,yellow,midnight,Someone did better than Player A,half-all-all,all-all-half,27,1,6372,
10,English,focus,lavender,seafoam,pink,Most of the players made shots,none-half-half,none-half-half,20,7,11435,
10,English,focus,lightblue,midnight,seafoam,All the players are tied,none-none-half,none-none-half,21,1,2435,
10,English,focus,tan,royalblue,seafoam,Player A tied with Player C,half-half-half,half-half-half,22,7,2956,
10,English,focus,wheat,seafoam,lavender,Player A shot perfectly,half-half-all,half-half-all,23,1,2203,
10,English,focus,grey,tan,royalblue,Most of the players missed shots,none-half-half,none-half-half,28,7,4597,
10,English,focus,darkorange,lightorange,tan,Exactly one player hit <b>NONE</b> of his shots,none-none-half,none-half-none,1,1,5275,
10,English,focus,brown,lightorange,yellow,No player hit <b>ALL</b> of his shots,half-half-half,half-half-half,0,7,7627,
10,English,focus,wheat,lightblue,tan,Player C made no shots,half-all-all,all-all-half,3,2,6111,
10,English,focus,wheat,pink,midnight,Player C shot perfectly,half-half-all,half-all-half,2,2,6687,
10,English,focus,wheat,midnight,yellow,We have a clear loser,half-all-all,half-all-all,5,5,9893,
10,English,focus,yellow,purple,pink,Every player hit <b>SOME</b> of his shots,none-none-half,none-half-none,4,1,4180,
10,English,focus,brown,seafoam,lightorange,Exactly one player hit <b>SOME</b> of his shots,none-none-none,none-none-none,7,1,5314,
10,English,focus,royalblue,lavender,darkorange,Someone did better than Player C,all-all-all,all-all-all,6,1,9771,
10,English,focus,yellow,lightorange,seafoam,Player A made no shots,none-none-none,none-none-none,9,7,5184,
10,English,focus,lightblue,wheat,yellow,Player C placed second,none-none-half,none-half-none,8,2,5459,
10,English,focus,darkorange,wheat,purple,Every player hit <b>NONE</b> of his shots,half-half-all,half-all-half,11,1,6243,
10,English,focus,seafoam,lavender,tan,Player B shot perfectly,none-none-none,none-none-none,10,1,3826,
10,English,focus,royalblue,brown,tan,No player hit <b>NONE</b> of his shots,half-half-all,all-half-half,13,7,11774,
10,English,focus,royalblue,grey,tan,Exactly one player hit <b>ALL</b> of his shots,none-none-all,all-none-none,12,7,4155,
10,English,focus,tan,midnight,purple,Player A tied with Player B,none-none-all,none-all-none,15,1,4531,
10,English,focus,royalblue,lightblue,midnight,We have a clear winner,all-all-all,all-all-all,14,1,2634,
10,English,focus,darkorange,yellow,seafoam,Player B tied with Player C,all-all-all,all-all-all,17,7,3839,
10,English,focus,lightblue,brown,darkorange,Someone did better than Player B,half-half-all,half-all-half,16,1,4227,
10,English,focus,lightblue,lightorange,seafoam,Player B placed second,none-none-none,none-none-none,19,1,7889,
10,English,focus,tan,midnight,lavender,No player hit <b>SOME</b> of his shots,none-none-all,none-all-none,18,1,9579,
10,English,focus,seafoam,midnight,lightblue,Player A was the star player of the round,most-none-all,most-none-all,-1,2,13373,yes
10,English,focus,lightblue,darkorange,yellow,Player A made none of his baskets,all-none-few,all-none-few,-3,1,11094,yes
10,English,focus,yellow,purple,royalblue,Player C messed up,all-all-none,all-all-none,-2,7,5307,yes
11,english,only,grey,wheat,seafoam,Player C shot perfectly,none-none-half,none-half-none,24,1,3048,
11,english,only,darkorange,grey,lightblue,No player hit none of his shots,none-none-half,none-none-half,25,1,3570,
11,english,only,royalblue,pink,purple,No player hit all of his shots,half-all-all,all-half-all,26,1,7311,
11,english,only,royalblue,seafoam,midnight,Exactly one player hit none of his shots,all-all-all,all-all-all,27,1,4971,
11,english,only,lavender,grey,pink,All the players are tied,none-none-all,none-all-none,20,1,2611,
11,english,only,lavender,lightorange,midnight,Every player hit all of his shots,none-half-all,half-all-none,21,1,6728,
11,english,only,seafoam,royalblue,lightblue,Exactly one player hit all of his shots,half-half-all,half-all-half,22,7,4188,
11,english,only,tan,purple,yellow,Player B shot perfectly,none-half-all,none-half-all,23,1,3112,
11,english,only,lightblue,purple,darkorange,We have a clear winner,half-all-all,all-half-all,28,7,2662,
11,english,only,midnight,yellow,lightblue,Player B tied with Player C,half-all-all,half-all-all,1,7,4719,
11,english,only,darkorange,lightorange,brown,Most of the players missed shots,all-all-all,all-all-all,0,1,6258,
11,english,only,lightorange,darkorange,midnight,Player B made no shots,none-none-all,all-none-none,3,7,5346,
11,english,only,royalblue,lavender,midnight,Player C placed second,none-none-none,none-none-none,2,1,6524,
11,english,only,brown,seafoam,purple,Player A made no shots,none-none-half,none-none-half,5,7,4165,
11,english,only,brown,lightorange,purple,Player A placed second,none-all-all,all-all-none,4,1,7831,
11,english,only,pink,midnight,yellow,Someone did better than Player A,none-all-all,none-all-all,7,7,8041,
11,english,only,purple,royalblue,seafoam,Every player hit none of his shots,none-all-all,all-all-none,6,1,5366,
11,english,only,tan,midnight,wheat,Player C made no shots,half-half-half,half-half-half,9,1,3816,
11,english,only,wheat,pink,royalblue,Exactly one player hit only some of his shots,all-all-all,all-all-all,8,1,5362,
11,english,only,wheat,grey,brown,Someone did better than Player B,half-half-half,half-half-half,11,1,4819,
11,english,only,pink,lightorange,yellow,Most of the players made shots,none-none-none,none-none-none,10,1,5057,
11,english,only,grey,lightblue,royalblue,We have a clear loser,none-none-none,none-none-none,13,7,4632,
11,english,only,pink,yellow,royalblue,Someone did better than Player C,all-all-all,all-all-all,12,1,8601,
11,english,only,lavender,brown,purple,Player A tied with Player B,half-half-half,half-half-half,15,7,4430,
11,english,only,lightorange,yellow,midnight,Player B placed second,none-none-half,half-none-none,14,1,5091,
11,english,only,royalblue,midnight,pink,Player A shot perfectly,none-all-all,all-none-all,17,7,4340,
11,english,only,brown,lavender,midnight,No player hit only some of his shots,none-half-all,all-half-none,16,1,4241,
11,english,only,grey,wheat,royalblue,Player A tied with Player C,none-none-all,all-none-none,19,1,4516,
11,english,only,seafoam,lightorange,tan,Every player hit only some of his shots,half-half-all,half-all-half,18,1,5414,
11,english,only,lightorange,lightblue,purple,Player A was the star player of the round,most-none-all,most-none-all,-1,1,18383,no
11,english,only,lavender,brown,tan,Player A made none of his baskets,all-none-few,all-none-few,-3,1,147899,no
11,english,only,lightorange,grey,seafoam,Player C messed up,all-all-none,all-all-none,-2,7,7809,yes
12,English,only,yellow,pink,grey,Exactly one player hit only some of his shots,half-half-all,half-all-half,24,1,7230,
12,English,only,yellow,tan,lightblue,Player C placed second,all-all-all,all-all-all,25,1,5966,
12,English,only,midnight,yellow,purple,Player A made no shots,none-half-half,half-half-none,26,1,2592,
12,English,only,purple,darkorange,pink,All the players are tied,half-all-all,half-all-all,27,1,2391,
12,English,only,royalblue,seafoam,purple,Exactly one player hit none of his shots,all-all-all,all-all-all,20,1,3807,
12,English,only,seafoam,purple,yellow,Someone did better than Player C,none-none-all,none-none-all,21,1,3782,
12,English,only,lavender,lightorange,brown,No player hit only some of his shots,none-all-all,none-all-all,22,5,4896,
12,English,only,seafoam,tan,wheat,Player A tied with Player B,none-half-half,none-half-half,23,1,5055,
12,English,only,tan,seafoam,pink,Every player hit none of his shots,half-all-all,half-all-all,28,1,5686,
12,English,only,lightblue,brown,grey,Player B placed second,none-none-all,none-all-none,1,1,7781,
12,English,only,tan,darkorange,wheat,Most of the players missed shots,none-none-half,none-half-none,0,6,6141,
12,English,only,midnight,darkorange,royalblue,We have a clear winner,none-all-all,all-all-none,3,1,5278,
12,English,only,midnight,lightorange,purple,Most of the players made shots,half-half-all,half-all-half,2,6,6071,
12,English,only,grey,purple,royalblue,Player B shot perfectly,none-none-none,none-none-none,5,1,3830,
12,English,only,midnight,wheat,tan,Player A placed second,none-all-all,all-none-all,4,4,9391,
12,English,only,purple,grey,brown,Player A shot perfectly,none-none-all,all-none-none,7,7,4558,
12,English,only,wheat,grey,tan,Every player hit only some of his shots,none-half-half,none-half-half,6,1,4037,
12,English,only,pink,darkorange,lavender,Exactly one player hit all of his shots,none-none-all,all-none-none,9,7,4726,
12,English,only,seafoam,pink,grey,No player hit all of his shots,none-all-all,all-all-none,8,1,3576,
12,English,only,lightblue,seafoam,midnight,Every player hit all of his shots,half-all-all,all-all-half,11,1,3717,
12,English,only,tan,darkorange,wheat,Player C shot perfectly,all-all-all,all-all-all,10,7,3663,
12,English,only,lavender,purple,midnight,No player hit none of his shots,all-all-all,all-all-all,13,2,7968,
12,English,only,yellow,purple,grey,Player B tied with Player C,none-all-all,all-all-none,12,1,4438,
12,English,only,purple,yellow,royalblue,Someone did better than Player A,half-half-all,half-all-half,15,6,7872,
12,English,only,yellow,wheat,lightorange,Player A tied with Player C,none-none-all,none-none-all,14,1,3502,
12,English,only,royalblue,pink,darkorange,Player C made no shots,none-all-all,all-all-none,17,7,4822,
12,English,only,grey,pink,lightorange,Player B made no shots,none-none-all,none-none-all,16,2,5182,
12,English,only,lightorange,lavender,lightblue,We have a clear loser,none-none-half,none-none-half,19,2,4431,
12,English,only,tan,lightblue,grey,Someone did better than Player B,half-all-all,all-half-all,18,6,5255,
12,English,only,darkorange,seafoam,lightblue,Player A was the star player of the round,most-none-all,most-none-all,-1,1,7328,yes
12,English,only,royalblue,lightorange,seafoam,Player A made none of his baskets,all-none-few,all-none-few,-3,1,29852,no
12,English,only,lightblue,lightorange,royalblue,Player C messed up,all-all-none,all-all-none,-2,6,12414,yes
13,English,focus,royalblue,wheat,purple,Exactly one player hit <b>NONE</b> of his shots,half-half-all,half-all-half,24,1,3797,
13,English,focus,seafoam,pink,lavender,Exactly one player hit <b>SOME</b> of his shots,none-half-half,none-half-half,25,1,4966,
13,English,focus,lavender,grey,purple,Someone did better than Player C,none-half-half,half-half-none,26,4,3911,
13,English,focus,brown,lavender,purple,Player A tied with Player C,none-none-half,none-none-half,27,1,4735,
13,English,focus,lightorange,lavender,midnight,Every player hit <b>NONE</b> of his shots,half-half-all,half-half-all,20,1,4036,
13,English,focus,midnight,lavender,tan,Someone did better than Player B,none-half-half,half-none-half,21,6,5194,
13,English,focus,tan,lightblue,brown,Most of the players made shots,all-all-all,all-all-all,22,5,2617,
13,English,focus,purple,lavender,royalblue,Player C shot perfectly,none-none-half,none-none-half,23,1,2478,
13,English,focus,lightblue,lavender,lightorange,Player B made no shots,none-half-all,none-half-all,28,1,4740,
13,English,focus,darkorange,royalblue,lightblue,Player A made no shots,none-none-half,half-none-none,1,1,6295,
13,English,focus,lavender,grey,royalblue,Exactly one player hit <b>ALL</b> of his shots,none-all-all,all-none-all,0,1,12991,
13,English,focus,yellow,lightblue,grey,Player B shot perfectly,none-none-half,half-none-none,3,1,3632,
13,English,focus,tan,yellow,royalblue,No player hit <b>NONE</b> of his shots,none-half-all,all-half-none,2,1,7410,
13,English,focus,wheat,lavender,pink,Every player hit <b>SOME</b> of his shots,all-all-all,all-all-all,5,5,6141,
13,English,focus,lightblue,tan,darkorange,Player C placed second,half-all-all,half-all-all,4,6,7015,
13,English,focus,midnight,grey,royalblue,Someone did better than Player A,half-half-all,all-half-half,7,1,3847,
13,English,focus,midnight,tan,brown,We have a clear winner,half-all-all,all-all-half,6,2,5268,
13,English,focus,midnight,darkorange,wheat,Player B tied with Player C,none-none-half,half-none-none,9,7,4064,
13,English,focus,seafoam,yellow,royalblue,We have a clear loser,none-half-half,none-half-half,8,7,2775,
13,English,focus,grey,wheat,royalblue,Every player hit <b>ALL</b> of his shots,none-half-half,none-half-half,11,1,3383,
13,English,focus,wheat,tan,pink,Player B placed second,half-all-all,half-all-all,10,5,3969,
13,English,focus,tan,purple,brown,No player hit <b>SOME</b> of his shots,none-all-all,all-none-all,13,7,10831,
13,English,focus,seafoam,wheat,yellow,No player hit <b>ALL</b> of his shots,none-none-half,half-none-none,12,7,4297,
13,English,focus,grey,midnight,seafoam,All the players are tied,none-none-half,none-none-half,15,1,3488,
13,English,focus,lightblue,pink,wheat,Player A shot perfectly,none-none-half,half-none-none,14,1,3055,
13,English,focus,pink,lightorange,brown,Player C made no shots,none-all-all,all-all-none,17,7,4179,
13,English,focus,brown,lightorange,grey,Player A placed second,none-none-half,half-none-none,16,1,5332,
13,English,focus,royalblue,darkorange,brown,Most of the players missed shots,none-none-none,none-none-none,19,5,6119,
13,English,focus,lightorange,yellow,pink,Player A tied with Player B,none-half-all,none-all-half,18,1,3690,
13,English,focus,darkorange,brown,pink,Player A was the star player of the round,most-none-all,most-none-all,-1,1,10730,yes
13,English,focus,lightorange,seafoam,grey,Player A made none of his baskets,all-none-few,all-none-few,-3,1,24593,no
13,English,focus,purple,seafoam,grey,Player C messed up,all-all-none,all-all-none,-2,6,10382,no
14,English,focus,pink,lightorange,lavender,Player A placed second,none-half-half,half-none-half,24,1,7490,
14,English,focus,wheat,midnight,seafoam,No player hit <b>ALL</b> of his shots,none-none-all,all-none-none,25,1,3196,
14,English,focus,lightblue,wheat,brown,Player C made no shots,none-none-none,none-none-none,26,7,4134,
14,English,focus,wheat,purple,lightblue,Every player hit <b>SOME</b> of his shots,half-half-all,half-half-all,27,3,5018,
14,English,focus,purple,lightorange,yellow,Player A tied with Player C,none-none-half,half-none-none,20,1,4914,
14,English,focus,lightorange,lightblue,pink,Player A made no shots,half-half-half,half-half-half,21,1,2922,
14,English,focus,yellow,purple,royalblue,Player B made no shots,none-none-half,none-none-half,22,7,3993,
14,English,focus,lavender,lightorange,brown,Player A tied with Player B,half-all-all,half-all-all,23,1,4273,
14,English,focus,lavender,lightorange,pink,Exactly one player hit <b>NONE</b> of his shots,none-none-half,none-half-none,28,1,3986,
14,English,focus,brown,lightorange,seafoam,Player A shot perfectly,none-none-half,none-none-half,1,1,5217,
14,English,focus,yellow,lavender,darkorange,Player C shot perfectly,none-none-half,none-half-none,0,1,4090,
14,English,focus,tan,grey,purple,Someone did better than Player C,none-none-all,all-none-none,3,6,6249,
14,English,focus,yellow,tan,brown,Exactly one player hit <b>SOME</b> of his shots,none-half-all,none-all-half,2,4,11274,
14,English,focus,wheat,darkorange,tan,Player B shot perfectly,half-all-all,all-all-half,5,7,3290,
14,English,focus,seafoam,lightorange,pink,Player C placed second,none-none-all,none-all-none,4,2,4337,
14,English,focus,brown,pink,yellow,Exactly one player hit <b>ALL</b> of his shots,none-none-half,none-none-half,7,1,4786,
14,English,focus,pink,darkorange,purple,No player hit <b>SOME</b> of his shots,none-none-half,none-none-half,6,1,4531,
14,English,focus,lightorange,royalblue,pink,Every player hit <b>NONE</b> of his shots,none-none-none,none-none-none,9,6,5338,
14,English,focus,pink,tan,purple,Player B placed second,none-none-all,none-none-all,8,2,3584,
14,English,focus,grey,pink,darkorange,Someone did better than Player B,none-none-all,all-none-none,11,6,4794,
14,English,focus,midnight,yellow,lavender,Every player hit <b>ALL</b> of his shots,half-half-half,half-half-half,10,1,2786,
14,English,focus,royalblue,brown,grey,Someone did better than Player A,none-none-none,none-none-none,13,1,3730,
14,English,focus,darkorange,seafoam,tan,We have a clear winner,all-all-all,all-all-all,12,1,4058,
14,English,focus,purple,grey,brown,All the players are tied,half-half-all,half-all-half,15,1,3540,
14,English,focus,brown,pink,seafoam,We have a clear loser,none-none-none,none-none-none,14,1,4530,
14,English,focus,lavender,lightblue,grey,Most of the players made shots,none-half-half,half-none-half,17,7,3641,
14,English,focus,darkorange,yellow,midnight,Most of the players missed shots,none-none-all,none-all-none,16,5,6772,
14,English,focus,seafoam,yellow,darkorange,Player B tied with Player C,none-none-half,half-none-none,19,7,5562,
14,English,focus,pink,wheat,purple,No player hit <b>NONE</b> of his shots,half-all-all,half-all-all,18,7,6328,
14,English,focus,wheat,lightblue,purple,Player A was the star player of the round,most-none-all,most-none-all,-1,1,8843,yes
14,English,focus,royalblue,lavender,midnight,Player A made none of his baskets,all-none-few,all-none-few,-3,1,12788,yes
14,English,focus,yellow,midnight,lightblue,Player C messed up,all-all-none,all-all-none,-2,7,7677,yes
15,English,only,darkorange,purple,pink,Every player hit none of his shots,none-none-none,none-none-none,24,7,12284,
15,English,only,royalblue,purple,seafoam,We have a clear winner,none-all-all,none-all-all,25,5,4416,
15,English,only,lavender,grey,tan,We have a clear loser,none-half-half,half-none-half,26,7,8771,
15,English,only,lightblue,lavender,grey,Player A placed second,all-all-all,all-all-all,27,1,7563,
15,English,only,lavender,lightorange,grey,Someone did better than Player C,half-half-all,half-all-half,20,4,6908,
15,English,only,tan,pink,seafoam,Most of the players made shots,half-all-all,half-all-all,21,2,7525,
15,English,only,royalblue,pink,lightblue,Player A made no shots,none-none-half,none-none-half,22,5,9194,
15,English,only,darkorange,lavender,seafoam,All the players are tied,half-half-all,half-all-half,23,1,6556,
15,English,only,darkorange,seafoam,brown,Exactly one player hit none of his shots,none-half-all,half-none-all,28,7,8438,
15,English,only,darkorange,yellow,seafoam,Someone did better than Player B,none-none-all,none-all-none,1,1,12633,
15,English,only,grey,tan,lightblue,No player hit none of his shots,half-half-half,half-half-half,0,1,26478,
15,English,only,wheat,darkorange,pink,Every player hit all of his shots,half-half-all,all-half-half,3,1,5437,
15,English,only,lightorange,purple,tan,Player B made no shots,half-all-all,all-half-all,2,1,12747,
15,English,only,lightblue,midnight,brown,Player A tied with Player B,none-none-all,none-all-none,5,6,7364,
15,English,only,wheat,brown,lightblue,Player B placed second,none-none-all,none-none-all,4,4,9311,
15,English,only,lavender,grey,lightorange,Exactly one player hit only some of his shots,none-none-half,none-half-none,7,6,11458,
15,English,only,midnight,royalblue,purple,Player C shot perfectly,none-half-all,half-none-all,6,7,5541,
15,English,only,lightorange,brown,purple,Most of the players missed shots,none-none-half,none-half-none,9,2,10885,
15,English,only,pink,grey,wheat,Player C made no shots,half-all-all,all-all-half,8,1,5613,
15,English,only,wheat,yellow,lightblue,Every player hit only some of his shots,all-all-all,all-all-all,11,1,6499,
15,English,only,wheat,lightorange,seafoam,No player hit only some of his shots,half-half-all,half-all-half,10,2,11412,
15,English,only,royalblue,lightorange,pink,No player hit all of his shots,none-none-all,none-all-none,13,1,8767,
15,English,only,yellow,royalblue,lightblue,Someone did better than Player A,half-half-half,half-half-half,12,1,6394,
15,English,only,yellow,pink,seafoam,Player B tied with Player C,none-none-half,none-half-none,15,1,11037,
15,English,only,seafoam,lavender,purple,Exactly one player hit all of his shots,none-none-half,none-none-half,14,2,28998,
15,English,only,tan,brown,midnight,Player A tied with Player C,none-none-none,none-none-none,17,3,8070,
15,English,only,grey,yellow,lavender,Player B shot perfectly,half-half-all,all-half-half,16,1,3944,
15,English,only,yellow,purple,lightorange,Player C placed second,none-none-half,none-half-none,19,3,8571,
15,English,only,lightblue,purple,lightorange,Player A shot perfectly,none-all-all,all-all-none,18,5,7242,
15,English,only,lavender,yellow,lightorange,Player A was the star player of the round,most-none-all,most-none-all,-1,1,19487,yes
15,English,only,brown,lightblue,wheat,Player A made none of his baskets,all-none-few,all-none-few,-3,1,21952,yes
15,English,only,royalblue,pink,lightblue,Player C messed up,all-all-none,all-all-none,-2,7,8072,yes
16,English,only,lavender,pink,seafoam,We have a clear loser,all-all-all,all-all-all,24,1,4804,
16,English,only,royalblue,tan,lightorange,We have a clear winner,none-all-all,none-all-all,25,1,6355,
16,English,only,wheat,lavender,purple,Every player hit all of his shots,half-half-all,half-half-all,26,1,3863,
16,English,only,pink,grey,lightblue,Exactly one player hit only some of his shots,half-half-all,all-half-half,27,1,4754,
16,English,only,wheat,darkorange,purple,Every player hit none of his shots,half-all-all,all-all-half,20,1,4801,
16,English,only,grey,tan,seafoam,Most of the players made shots,half-all-all,all-half-all,21,5,13203,
16,English,only,royalblue,brown,seafoam,Player A tied with Player C,none-half-all,none-half-all,22,1,5701,
16,English,only,wheat,yellow,grey,Player B made no shots,none-none-all,all-none-none,23,7,5345,
16,English,only,grey,royalblue,yellow,Player A tied with Player B,none-none-none,none-none-none,28,7,7202,
16,English,only,seafoam,lightorange,yellow,Player B placed second,half-half-all,half-half-all,1,4,8383,
16,English,only,grey,lavender,lightblue,Someone did better than Player B,half-half-half,half-half-half,0,1,9325,
16,English,only,seafoam,darkorange,pink,Player A placed second,half-half-all,half-all-half,3,4,5913,
16,English,only,brown,lightorange,lavender,Player A made no shots,all-all-all,all-all-all,2,1,7088,
16,English,only,wheat,brown,midnight,Player C made no shots,half-half-all,half-all-half,5,1,7274,
16,English,only,grey,pink,lavender,No player hit none of his shots,none-half-half,half-none-half,4,1,15461,
16,English,only,brown,wheat,lightblue,Player B shot perfectly,half-half-half,half-half-half,7,1,4875,
16,English,only,tan,seafoam,pink,Exactly one player hit all of his shots,none-all-all,all-none-all,6,1,5634,
16,English,only,darkorange,brown,seafoam,Player C shot perfectly,half-half-half,half-half-half,9,1,4141,
16,English,only,lightorange,midnight,pink,All the players are tied,none-none-all,none-none-all,8,1,7030,
16,English,only,lightblue,tan,brown,Player C placed second,none-half-all,half-none-all,11,1,4819,
16,English,only,lavender,royalblue,lightblue,Exactly one player hit none of his shots,none-half-half,half-none-half,10,7,6366,
16,English,only,yellow,midnight,pink,No player hit all of his shots,none-none-half,half-none-none,13,7,6422,
16,English,only,seafoam,yellow,wheat,No player hit only some of his shots,none-none-half,none-none-half,12,1,8017,
16,English,only,midnight,purple,lavender,Player B tied with Player C,none-half-all,half-none-all,15,1,6422,
16,English,only,lavender,tan,grey,Most of the players missed shots,half-half-half,half-half-half,14,5,9118,
16,English,only,purple,tan,darkorange,Someone did better than Player C,half-half-half,half-half-half,17,1,5201,
16,English,only,seafoam,wheat,darkorange,Every player hit only some of his shots,half-all-all,half-all-all,16,1,7819,
16,English,only,purple,lavender,pink,Player A shot perfectly,all-all-all,all-all-all,19,7,4295,
16,English,only,seafoam,darkorange,tan,Someone did better than Player A,none-none-all,none-all-none,18,7,5605,
16,English,only,royalblue,darkorange,brown,Player A was the star player of the round,most-none-all,most-none-all,-1,1,12578,yes
16,English,only,wheat,tan,grey,Player A made none of his baskets,all-none-few,all-none-few,-3,1,11968,yes
16,English,only,yellow,grey,darkorange,Player C messed up,all-all-none,all-all-none,-2,7,7742,yes
17,English,only,lightorange,midnight,lightblue,Exactly one player hit none of his shots,none-none-half,none-none-half,24,1,5607,
17,English,only,grey,yellow,midnight,Every player hit all of his shots,none-half-half,half-none-half,25,1,3602,
17,English,only,pink,wheat,darkorange,We have a clear winner,half-half-half,half-half-half,26,1,3291,
17,English,only,wheat,lightblue,royalblue,Player A tied with Player C,none-half-all,half-all-none,27,1,3561,
17,English,only,pink,brown,royalblue,Every player hit only some of his shots,half-half-all,all-half-half,20,7,8848,
17,English,only,darkorange,lavender,lightblue,Player A made no shots,half-all-all,all-half-all,21,1,4704,
17,English,only,midnight,pink,royalblue,Player B shot perfectly,none-all-all,all-none-all,22,1,3002,
17,English,only,midnight,seafoam,brown,Someone did better than Player A,none-half-half,half-none-half,23,1,4964,
17,English,only,lightblue,royalblue,grey,Player B placed second,none-all-all,all-none-all,28,1,5770,
17,English,only,lightorange,brown,lightblue,Player A shot perfectly,half-half-all,half-half-all,1,1,4128,
17,English,only,lavender,lightorange,wheat,Player B tied with Player C,half-half-all,all-half-half,0,7,4758,
17,English,only,darkorange,yellow,lightblue,Player A tied with Player B,half-all-all,all-half-all,3,7,5501,
17,English,only,lightorange,seafoam,brown,Player A placed second,none-none-half,half-none-none,2,1,5924,
17,English,only,darkorange,purple,tan,All the players are tied,none-all-all,all-none-all,5,2,5895,
17,English,only,lightorange,royalblue,midnight,Someone did better than Player B,none-none-none,none-none-none,4,1,5134,
17,English,only,yellow,darkorange,tan,Player C made no shots,none-all-all,all-none-all,7,1,5144,
17,English,only,grey,lightorange,darkorange,No player hit all of his shots,none-none-all,none-none-all,6,1,3460,
17,English,only,royalblue,brown,midnight,We have a clear loser,none-half-all,all-none-half,9,7,4694,
17,English,only,purple,royalblue,brown,Player C shot perfectly,none-all-all,none-all-all,8,7,2920,
17,English,only,tan,lightorange,brown,Exactly one player hit only some of his shots,none-all-all,all-all-none,11,1,6288,
17,English,only,tan,purple,brown,Player C placed second,half-half-all,half-half-all,10,1,7141,
17,English,only,pink,brown,darkorange,No player hit none of his shots,half-all-all,all-all-half,13,5,25688,
17,English,only,lightblue,seafoam,yellow,Most of the players missed shots,none-half-all,half-all-none,12,6,6481,
17,English,only,lavender,royalblue,midnight,Player B made no shots,none-all-all,all-none-all,15,7,3848,
17,English,only,purple,darkorange,royalblue,Every player hit none of his shots,none-none-none,none-none-none,14,7,3555,
17,English,only,lightblue,yellow,darkorange,Someone did better than Player C,none-half-half,none-half-half,17,2,8429,
17,English,only,purple,darkorange,lightblue,No player hit only some of his shots,none-all-all,all-all-none,16,1,6111,
17,English,only,lavender,yellow,pink,Most of the players made shots,none-none-none,none-none-none,19,1,3106,
17,English,only,purple,pink,royalblue,Exactly one player hit all of his shots,none-none-all,none-none-all,18,7,4299,
17,English,only,purple,brown,tan,Player A was the star player of the round,most-none-all,most-none-all,-1,1,6582,yes
17,English,only,purple,tan,royalblue,Player A made none of his baskets,all-none-few,all-none-few,-3,1,13321,yes
17,English,only,tan,lavender,lightblue,Player C messed up,all-all-none,all-all-none,-2,7,10534,no
18,English,only,lavender,lightorange,pink,No player hit all of his shots,none-none-all,none-all-none,24,1,3525,
18,English,only,pink,seafoam,darkorange,Player B made no shots,all-all-all,all-all-all,25,1,3198,
18,English,only,purple,lightblue,royalblue,Player B placed second,none-none-all,all-none-none,26,5,5426,
18,English,only,wheat,darkorange,brown,Player C placed second,half-all-all,all-all-half,27,5,5940,
18,English,only,lightorange,yellow,purple,Player A shot perfectly,all-all-all,all-all-all,20,7,3256,
18,English,only,seafoam,tan,lightblue,All the players are tied,none-half-half,half-half-none,21,1,4146,
18,English,only,darkorange,wheat,seafoam,Every player hit none of his shots,half-half-half,half-half-half,22,1,4576,
18,English,only,brown,tan,yellow,We have a clear loser,none-none-half,none-none-half,23,3,7764,
18,English,only,purple,lightblue,seafoam,Most of the players missed shots,none-none-half,none-half-none,28,5,6438,
18,English,only,yellow,wheat,grey,Player C shot perfectly,none-none-half,none-none-half,1,1,3859,
18,English,only,wheat,pink,royalblue,Player C made no shots,half-half-half,half-half-half,0,1,5621,
18,English,only,purple,lightorange,tan,Every player hit only some of his shots,none-none-half,none-none-half,3,1,20542,
18,English,only,midnight,lightorange,tan,Exactly one player hit none of his shots,none-none-all,none-all-none,2,1,10486,
18,English,only,grey,yellow,lightorange,We have a clear winner,none-none-half,none-none-half,5,5,5346,
18,English,only,darkorange,midnight,brown,Exactly one player hit only some of his shots,none-half-all,half-none-all,4,5,11761,
18,English,only,grey,darkorange,seafoam,No player hit none of his shots,none-none-half,none-half-none,7,1,5092,
18,English,only,yellow,wheat,royalblue,No player hit only some of his shots,none-none-none,none-none-none,6,1,6709,
18,English,only,darkorange,lightblue,tan,Player A tied with Player C,none-none-half,half-none-none,9,1,3671,
18,English,only,wheat,darkorange,purple,Player B tied with Player C,none-half-all,all-half-none,8,1,4138,
18,English,only,lightorange,seafoam,midnight,Player A made no shots,all-all-all,all-all-all,11,1,4432,
18,English,only,lightorange,yellow,tan,Player A tied with Player B,none-half-all,all-half-none,10,1,5344,
18,English,only,brown,darkorange,tan,Someone did better than Player A,half-half-half,half-half-half,13,1,4554,
18,English,only,midnight,royalblue,seafoam,Exactly one player hit all of his shots,none-all-all,all-none-all,12,1,4675,
18,English,only,wheat,darkorange,seafoam,Most of the players made shots,half-half-half,half-half-half,15,6,4832,
18,English,only,lightorange,lavender,yellow,Player B shot perfectly,none-none-all,all-none-none,14,1,3668,
18,English,only,seafoam,pink,yellow,Every player hit all of his shots,none-half-all,all-none-half,17,1,3513,
18,English,only,royalblue,grey,midnight,Player A placed second,half-half-half,half-half-half,16,2,6482,
18,English,only,midnight,royalblue,purple,Someone did better than Player B,none-none-none,none-none-none,19,1,4256,
18,English,only,pink,lightorange,tan,Someone did better than Player C,half-all-all,all-half-all,18,1,5861,
18,English,only,yellow,lightblue,purple,Player A was the star player of the round,most-none-all,most-none-all,-1,1,9366,yes
18,English,only,brown,grey,seafoam,Player A made none of his baskets,all-none-few,all-none-few,-3,1,22052,no
18,English,only,lavender,grey,lightorange,Player C messed up,all-all-none,all-all-none,-2,6,10591,yes
19,English,focus,tan,purple,royalblue,Player C placed second,half-half-all,all-half-half,24,5,3368,
19,English,focus,tan,lightorange,lightblue,Someone did better than Player B,none-half-half,none-half-half,25,2,5861,
19,English,focus,yellow,lightblue,lightorange,Player B made no shots,none-half-half,half-half-none,26,1,2741,
19,English,focus,seafoam,pink,lavender,We have a clear loser,none-none-all,none-none-all,27,1,3403,
19,English,focus,lightblue,brown,purple,Player A made no shots,none-none-all,none-all-none,20,7,3606,
19,English,focus,yellow,purple,royalblue,All the players are tied,none-none-none,none-none-none,21,7,2855,
19,English,focus,royalblue,lavender,pink,Player B placed second,none-half-all,half-none-all,22,1,4709,
19,English,focus,brown,seafoam,royalblue,No player hit <b>SOME</b> of his shots,none-none-half,none-half-none,23,1,3204,
19,English,focus,brown,grey,wheat,Every player hit <b>NONE</b> of his shots,none-none-half,half-none-none,28,1,8312,
19,English,focus,brown,grey,lightblue,Player A tied with Player C,none-none-all,none-all-none,1,7,8069,
19,English,focus,tan,lightblue,seafoam,Player C made no shots,none-all-all,all-none-all,0,1,6487,
19,English,focus,seafoam,royalblue,grey,Player A tied with Player B,none-half-all,none-half-all,3,1,19092,
19,English,focus,wheat,lightorange,lightblue,Player C shot perfectly,all-all-all,all-all-all,2,7,5107,
19,English,focus,yellow,darkorange,lightorange,Exactly one player hit <b>NONE</b> of his shots,none-none-all,none-none-all,5,7,5811,
19,English,focus,midnight,lightorange,brown,Exactly one player hit <b>SOME</b> of his shots,half-half-half,half-half-half,4,4,14541,
19,English,focus,lavender,seafoam,lightorange,Someone did better than Player A,half-all-all,all-all-half,7,2,32229,
19,English,focus,brown,tan,wheat,Exactly one player hit <b>ALL</b> of his shots,none-all-all,all-all-none,6,1,13245,
19,English,focus,lightorange,darkorange,brown,Most of the players missed shots,none-none-half,none-none-half,9,7,5461,
19,English,focus,tan,yellow,brown,Every player hit <b>ALL</b> of his shots,half-half-all,half-half-all,8,1,4566,
19,English,focus,brown,lavender,royalblue,Player A placed second,none-none-none,none-none-none,11,1,4300,
19,English,focus,grey,seafoam,darkorange,No player hit <b>ALL</b> of his shots,none-half-half,half-none-half,10,7,3453,
19,English,focus,yellow,tan,lightorange,Every player hit <b>SOME</b> of his shots,none-none-half,none-none-half,13,1,20167,
19,English,focus,seafoam,yellow,lavender,Player A shot perfectly,none-half-half,half-none-half,12,3,6732,
19,English,focus,midnight,tan,wheat,No player hit <b>NONE</b> of his shots,none-none-all,none-none-all,15,1,4467,
19,English,focus,lightblue,wheat,tan,Player B tied with Player C,half-all-all,all-all-half,14,1,41877,
19,English,focus,pink,midnight,darkorange,Most of the players made shots,half-half-half,half-half-half,17,5,28625,
19,English,focus,darkorange,lightblue,tan,Someone did better than Player C,all-all-all,all-all-all,16,2,4339,
19,English,focus,midnight,seafoam,yellow,Player B shot perfectly,none-all-all,none-all-all,19,6,3749,
19,English,focus,brown,lightorange,royalblue,We have a clear winner,half-half-half,half-half-half,18,1,5722,
19,English,focus,seafoam,brown,pink,Player A was the star player of the round,most-none-all,most-none-all,-1,2,7695,yes
19,English,focus,pink,lightblue,royalblue,Player A made none of his baskets,all-none-few,all-none-few,-3,1,10528,yes
19,English,focus,seafoam,purple,midnight,Player C messed up,all-all-none,all-all-none,-2,7,11535,no
20,english,focus,lightblue,grey,seafoam,Player B made no shots,none-half-half,half-none-half,24,7,4485,
20,english,focus,lightblue,seafoam,tan,Player A placed second,none-half-all,all-none-half,25,1,3949,
20,english,focus,grey,yellow,lightblue,Most of the players made shots,none-none-none,none-none-none,26,7,4844,
20,english,focus,lightorange,yellow,darkorange,Exactly one player hit <b>SOME</b> of his shots,half-all-all,all-all-half,27,7,6037,
20,english,focus,royalblue,darkorange,lightorange,Player C shot perfectly,none-half-all,all-none-half,20,1,4731,
20,english,focus,seafoam,lavender,lightorange,Player C made no shots,none-none-all,none-none-all,21,1,4986,
20,english,focus,brown,seafoam,wheat,All the players are tied,none-half-all,all-none-half,22,3,5630,
20,english,focus,seafoam,tan,lavender,Someone did better than Player A,none-none-all,all-none-none,23,1,4956,
20,english,focus,grey,royalblue,darkorange,Player A tied with Player C,half-half-all,all-half-half,28,1,5135,
20,english,focus,darkorange,tan,seafoam,We have a clear winner,none-half-all,half-none-all,1,7,7246,
20,english,focus,tan,lightorange,lavender,Every player hit <b>ALL</b> of his shots,none-half-all,half-none-all,0,1,8779,
20,english,focus,wheat,purple,midnight,Most of the players missed shots,half-half-half,half-half-half,3,7,8123,
20,english,focus,brown,midnight,lavender,No player hit <b>ALL</b> of his shots,none-none-all,none-all-none,2,1,6413,
20,english,focus,lightblue,tan,darkorange,Player A made no shots,half-all-all,all-all-half,5,1,4829,
20,english,focus,lavender,tan,yellow,Player B tied with Player C,none-half-half,half-none-half,4,1,23181,
20,english,focus,royalblue,lavender,grey,Someone did better than Player C,none-half-all,all-none-half,7,7,7452,
20,english,focus,darkorange,royalblue,purple,No player hit <b>SOME</b> of his shots,none-half-all,half-all-none,6,1,10984,
20,english,focus,lightblue,lightorange,seafoam,Player B placed second,all-all-all,all-all-all,9,1,6614,
20,english,focus,grey,brown,purple,Player A tied with Player B,all-all-all,all-all-all,8,7,12656,
20,english,focus,seafoam,grey,lightblue,Exactly one player hit <b>NONE</b> of his shots,half-all-all,all-all-half,11,1,7992,
20,english,focus,yellow,darkorange,purple,Exactly one player hit <b>ALL</b> of his shots,none-none-none,none-none-none,10,1,7848,
20,english,focus,yellow,tan,darkorange,We have a clear loser,none-half-all,half-none-all,13,7,5932,
20,english,focus,lightorange,lightblue,pink,No player hit <b>NONE</b> of his shots,half-all-all,all-all-half,12,7,8780,
20,english,focus,purple,darkorange,midnight,Player B shot perfectly,none-half-half,half-half-none,15,1,7613,
20,english,focus,royalblue,brown,lavender,Every player hit <b>SOME</b> of his shots,none-none-half,none-none-half,14,1,6525,
20,english,focus,lavender,royalblue,seafoam,Someone did better than Player B,none-half-half,none-half-half,17,1,7690,
20,english,focus,tan,wheat,royalblue,Player C placed second,half-half-all,half-half-all,16,1,4918,
20,english,focus,lavender,lightblue,seafoam,Every player hit <b>NONE</b> of his shots,none-half-half,half-none-half,19,2,7649,
20,english,focus,grey,brown,darkorange,Player A shot perfectly,none-half-half,half-none-half,18,1,9577,
20,english,focus,grey,darkorange,tan,Player A was the star player of the round,most-none-all,most-none-all,-1,1,14335,yes
20,english,focus,midnight,pink,seafoam,Player A made none of his baskets,all-none-few,all-none-few,-3,1,24044,yes
20,english,focus,grey,seafoam,midnight,Player C messed up,all-all-none,all-all-none,-2,7,12649,yes
21,english,only,lavender,grey,purple,No player hit all of his shots,half-half-all,half-half-all,24,1,5721,
21,english,only,pink,lightorange,brown,Every player hit only some of his shots,none-half-all,half-all-none,25,1,6158,
21,english,only,grey,wheat,seafoam,No player hit only some of his shots,none-all-all,none-all-all,26,7,7932,
21,english,only,darkorange,brown,lightorange,Player A shot perfectly,half-half-all,half-all-half,27,1,4190,
21,english,only,pink,lightorange,yellow,Player B made no shots,half-half-half,half-half-half,20,1,3594,
21,english,only,lavender,yellow,royalblue,Exactly one player hit none of his shots,all-all-all,all-all-all,21,1,4955,
21,english,only,midnight,darkorange,seafoam,Someone did better than Player C,none-half-half,none-half-half,22,1,4071,
21,english,only,brown,wheat,lightorange,Someone did better than Player A,none-none-all,none-all-none,23,7,5335,
21,english,only,seafoam,wheat,yellow,Player C shot perfectly,none-half-all,none-half-all,28,7,4249,
21,english,only,pink,lightblue,purple,Every player hit all of his shots,half-all-all,all-all-half,1,1,4483,
21,english,only,purple,seafoam,lightblue,Player C placed second,none-half-half,none-half-half,0,5,8134,
21,english,only,grey,royalblue,brown,We have a clear loser,all-all-all,all-all-all,3,1,5349,
21,english,only,seafoam,purple,wheat,Player A placed second,none-none-half,half-none-none,2,1,5605,
21,english,only,pink,tan,purple,Player B tied with Player C,none-none-none,none-none-none,5,7,5467,
21,english,only,royalblue,brown,grey,Exactly one player hit all of his shots,half-all-all,all-half-all,4,1,4919,
21,english,only,purple,brown,lightorange,Player A made no shots,none-half-all,half-none-all,7,1,5107,
21,english,only,lightblue,midnight,lightorange,Player B placed second,none-half-half,none-half-half,6,5,5637,
21,english,only,yellow,tan,darkorange,Player C made no shots,half-half-all,half-all-half,9,1,4228,
21,english,only,tan,wheat,pink,Every player hit none of his shots,none-all-all,all-all-none,8,1,5918,
21,english,only,royalblue,tan,darkorange,We have a clear winner,half-all-all,half-all-all,11,3,4792,
21,english,only,lavender,wheat,lightorange,No player hit none of his shots,none-half-all,none-all-half,10,1,5032,
21,english,only,yellow,lavender,darkorange,Player A tied with Player C,none-half-half,none-half-half,13,1,4435,
21,english,only,royalblue,midnight,yellow,Most of the players missed shots,half-half-all,half-all-half,12,7,5942,
21,english,only,seafoam,midnight,yellow,Most of the players made shots,none-none-half,none-none-half,15,1,4518,
21,english,only,lightblue,lightorange,purple,Someone did better than Player B,none-half-half,half-half-none,14,1,5458,
21,english,only,pink,lightblue,tan,All the players are tied,none-half-all,all-half-none,17,1,3684,
21,english,only,darkorange,lightblue,grey,Player B shot perfectly,none-half-half,none-half-half,16,1,3502,
21,english,only,seafoam,purple,brown,Player A tied with Player B,none-none-half,none-none-half,19,7,4241,
21,english,only,seafoam,lavender,tan,Exactly one player hit only some of his shots,none-none-half,half-none-none,18,7,7558,
21,english,only,purple,seafoam,lavender,Player A was the star player of the round,most-none-all,most-none-all,-1,1,7694,yes
21,english,only,wheat,lavender,purple,Player A made none of his baskets,all-none-few,all-none-few,-3,1,19575,yes
21,english,only,grey,tan,brown,Player C messed up,all-all-none,all-all-none,-2,7,7485,yes
22,English,focus,wheat,lightorange,tan,Every player hit <b>ALL</b> of his shots,none-half-half,none-half-half,24,1,3690,
22,English,focus,grey,darkorange,seafoam,No player hit <b>ALL</b> of his shots,half-all-all,half-all-all,25,1,4900,
22,English,focus,lightblue,royalblue,darkorange,Every player hit <b>SOME</b> of his shots,none-none-all,none-all-none,26,1,3317,
22,English,focus,purple,seafoam,grey,Player B placed second,half-half-half,half-half-half,27,1,7020,
22,English,focus,pink,lightorange,yellow,Player A tied with Player C,none-half-all,none-all-half,20,1,4348,
22,English,focus,royalblue,midnight,pink,Someone did better than Player B,none-all-all,none-all-all,21,1,12265,
22,English,focus,seafoam,darkorange,midnight,Player A placed second,half-all-all,all-all-half,22,1,12382,
22,English,focus,lightorange,grey,lightblue,Player B made no shots,none-half-half,half-none-half,23,7,4971,
22,English,focus,purple,midnight,lavender,Most of the players made shots,none-half-half,half-half-none,28,7,9647,
22,English,focus,purple,seafoam,lavender,Someone did better than Player A,none-all-all,all-none-all,1,1,7622,
22,English,focus,tan,royalblue,seafoam,Someone did better than Player C,half-all-all,half-all-all,0,1,10884,
22,English,focus,midnight,royalblue,darkorange,We have a clear loser,half-all-all,half-all-all,3,7,11981,
22,English,focus,brown,yellow,darkorange,No player hit <b>NONE</b> of his shots,half-half-all,half-half-all,2,7,17105,
22,English,focus,tan,purple,brown,Player A made no shots,half-half-half,half-half-half,5,1,4756,
22,English,focus,yellow,midnight,lightorange,Player C placed second,half-half-all,half-half-all,4,1,8003,
22,English,focus,purple,brown,pink,Player A shot perfectly,none-all-all,all-none-all,7,7,5376,
22,English,focus,pink,purple,seafoam,All the players are tied,none-none-half,none-none-half,6,1,5638,
22,English,focus,wheat,yellow,grey,Exactly one player hit <b>ALL</b> of his shots,none-half-all,half-none-all,9,7,4924,
22,English,focus,yellow,grey,lightblue,No player hit <b>SOME</b> of his shots,none-half-half,half-half-none,8,1,13874,
22,English,focus,lightblue,royalblue,seafoam,Every player hit <b>NONE</b> of his shots,none-none-all,none-none-all,11,1,5524,
22,English,focus,pink,lightorange,lavender,Player C made no shots,half-all-all,all-half-all,10,1,4251,
22,English,focus,seafoam,darkorange,midnight,Exactly one player hit <b>SOME</b> of his shots,none-all-all,all-none-all,13,1,8589,
22,English,focus,wheat,royalblue,seafoam,Exactly one player hit <b>NONE</b> of his shots,half-all-all,all-half-all,12,1,3956,
22,English,focus,brown,grey,royalblue,We have a clear winner,none-none-none,none-none-none,15,1,3918,
22,English,focus,midnight,purple,grey,Most of the players missed shots,none-all-all,all-all-none,14,1,4567,
22,English,focus,tan,lightblue,yellow,Player B tied with Player C,none-half-all,all-half-none,17,1,5107,
22,English,focus,lavender,yellow,grey,Player B shot perfectly,all-all-all,all-all-all,16,7,6396,
22,English,focus,lavender,tan,wheat,Player C shot perfectly,none-none-half,none-none-half,19,1,4804,
22,English,focus,darkorange,grey,lavender,Player A tied with Player B,all-all-all,all-all-all,18,7,6596,
22,English,focus,lavender,darkorange,lightorange,Player A was the star player of the round,most-none-all,most-none-all,-1,2,21680,no
22,English,focus,midnight,brown,yellow,Player A made none of his baskets,all-none-few,all-none-few,-3,1,15435,yes
22,English,focus,lavender,yellow,wheat,Player C messed up,all-all-none,all-all-none,-2,7,17609,no
23,English,only,lavender,midnight,purple,Player A tied with Player B,all-all-all,all-all-all,24,7,3020,
23,English,only,tan,lightorange,grey,Player B placed second,none-half-all,half-all-none,25,1,5554,
23,English,only,darkorange,purple,seafoam,No player hit all of his shots,all-all-all,all-all-all,26,1,2842,
23,English,only,yellow,lightblue,tan,Player A shot perfectly,none-none-half,none-none-half,27,1,3374,
23,English,only,brown,yellow,grey,Player A placed second,half-all-all,half-all-all,20,5,9523,
23,English,only,grey,pink,wheat,We have a clear loser,half-half-half,half-half-half,21,1,3162,
23,English,only,seafoam,royalblue,darkorange,Someone did better than Player A,half-half-all,all-half-half,22,1,7204,
23,English,only,tan,purple,seafoam,All the players are tied,none-none-half,none-none-half,23,1,3170,
23,English,only,royalblue,grey,wheat,Player C placed second,none-half-half,half-none-half,28,5,7951,
23,English,only,midnight,darkorange,brown,Most of the players made shots,half-half-half,half-half-half,1,6,8603,
23,English,only,royalblue,purple,lavender,Player B tied with Player C,all-all-all,all-all-all,0,7,9259,
23,English,only,darkorange,yellow,pink,Player B shot perfectly,none-none-all,none-all-none,3,7,5770,
23,English,only,yellow,darkorange,brown,Player A tied with Player C,none-half-all,half-none-all,2,1,4570,
23,English,only,lavender,purple,lightorange,Every player hit only some of his shots,none-half-all,all-none-half,5,1,6827,
23,English,only,lavender,darkorange,wheat,Someone did better than Player B,none-none-half,none-none-half,4,7,6009,
23,English,only,brown,midnight,tan,Player C made no shots,none-none-all,none-all-none,7,7,17478,
23,English,only,royalblue,midnight,lavender,Player C shot perfectly,half-half-half,half-half-half,6,1,3961,
23,English,only,lightorange,darkorange,lightblue,Player B made no shots,none-none-none,none-none-none,9,7,3835,
23,English,only,tan,lightblue,purple,Every player hit all of his shots,none-half-all,half-all-none,8,1,13399,
23,English,only,midnight,darkorange,yellow,Most of the players missed shots,none-all-all,all-all-none,11,1,6188,
23,English,only,darkorange,pink,brown,Exactly one player hit only some of his shots,none-none-half,none-none-half,10,7,5525,
23,English,only,midnight,tan,purple,No player hit only some of his shots,all-all-all,all-all-all,13,7,7511,
23,English,only,tan,grey,darkorange,Exactly one player hit all of his shots,none-none-none,none-none-none,12,1,3366,
23,English,only,pink,grey,midnight,Someone did better than Player C,all-all-all,all-all-all,15,1,2667,
23,English,only,royalblue,darkorange,wheat,Exactly one player hit none of his shots,half-all-all,half-all-all,14,1,5290,
23,English,only,brown,yellow,royalblue,No player hit none of his shots,half-half-half,half-half-half,17,7,10018,
23,English,only,lightblue,darkorange,seafoam,Every player hit none of his shots,half-all-all,all-all-half,16,1,3711,
23,English,only,royalblue,lightorange,darkorange,Player A made no shots,none-half-half,half-none-half,19,1,3687,
23,English,only,wheat,seafoam,midnight,We have a clear winner,half-all-all,all-half-all,18,1,3915,
23,English,only,lavender,lightorange,darkorange,Player A was the star player of the round,most-none-all,most-none-all,-1,1,7297,yes
23,English,only,lavender,brown,seafoam,Player A made none of his baskets,all-none-few,all-none-few,-3,1,13341,yes
23,English,only,seafoam,grey,lightblue,Player C messed up,all-all-none,all-all-none,-2,7,6671,yes
24,English,focus,grey,wheat,lavender,Player B made no shots,none-all-all,none-all-all,24,1,2541,
24,English,focus,pink,yellow,lightorange,Exactly one player hit <b>ALL</b> of his shots,none-none-none,none-none-none,25,1,2396,
24,English,focus,pink,grey,midnight,Someone did better than Player C,half-half-all,all-half-half,26,7,2814,
24,English,focus,brown,lightblue,darkorange,Player B placed second,none-none-all,none-none-all,27,7,5388,
24,English,focus,purple,lightorange,seafoam,Player C placed second,all-all-all,all-all-all,20,1,3630,
24,English,focus,pink,tan,grey,Most of the players made shots,half-half-all,half-half-all,21,6,11838,
24,English,focus,darkorange,lavender,brown,Every player hit <b>NONE</b> of his shots,none-all-all,none-all-all,22,1,2808,
24,English,focus,royalblue,seafoam,lightblue,Player A tied with Player C,all-all-all,all-all-all,23,7,3028,
24,English,focus,seafoam,lightblue,wheat,Exactly one player hit <b>NONE</b> of his shots,none-all-all,none-all-all,28,7,2959,
24,English,focus,brown,royalblue,lightblue,No player hit <b>ALL</b> of his shots,none-half-all,all-none-half,1,1,6849,
24,English,focus,royalblue,lavender,darkorange,Every player hit <b>SOME</b> of his shots,all-all-all,all-all-all,0,4,12959,
24,English,focus,tan,brown,yellow,Player A placed second,all-all-all,all-all-all,3,1,6949,
24,English,focus,royalblue,darkorange,yellow,We have a clear loser,none-half-all,all-half-none,2,7,6881,
24,English,focus,wheat,grey,pink,Player C made no shots,none-none-half,none-none-half,5,1,3341,
24,English,focus,brown,royalblue,purple,Every player hit <b>ALL</b> of his shots,none-half-half,none-half-half,4,1,4897,
24,English,focus,purple,pink,yellow,Player A shot perfectly,none-none-all,none-all-none,7,1,2697,
24,English,focus,lightorange,royalblue,midnight,Most of the players missed shots,none-none-all,none-none-all,6,7,4756,
24,English,focus,lavender,yellow,darkorange,Player B tied with Player C,none-none-all,none-all-none,9,1,5033,
24,English,focus,wheat,brown,yellow,Exactly one player hit <b>SOME</b> of his shots,none-half-half,none-half-half,8,1,4973,
24,English,focus,midnight,purple,pink,Player B shot perfectly,half-all-all,half-all-all,11,7,13152,
24,English,focus,purple,royalblue,seafoam,No player hit <b>SOME</b> of his shots,half-half-half,half-half-half,10,1,4281,
24,English,focus,pink,seafoam,lavender,No player hit <b>NONE</b> of his shots,none-half-half,half-half-none,13,1,3821,
24,English,focus,midnight,tan,seafoam,Player A made no shots,none-none-half,none-none-half,12,7,2784,
24,English,focus,yellow,midnight,darkorange,Player C shot perfectly,half-all-all,half-all-all,15,7,3461,
24,English,focus,royalblue,pink,midnight,Player A tied with Player B,none-none-none,none-none-none,14,7,3317,
24,English,focus,lightorange,tan,wheat,Someone did better than Player A,none-none-none,none-none-none,17,1,3132,
24,English,focus,seafoam,midnight,wheat,We have a clear winner,half-half-half,half-half-half,16,1,2993,
24,English,focus,lightblue,yellow,wheat,Someone did better than Player B,half-half-all,all-half-half,19,7,5199,
24,English,focus,royalblue,lightblue,brown,All the players are tied,none-half-all,none-all-half,18,1,2739,
24,English,focus,purple,midnight,wheat,Player A was the star player of the round,most-none-all,most-none-all,-1,1,6979,yes
24,English,focus,darkorange,brown,midnight,Player A made none of his baskets,all-none-few,all-none-few,-3,1,14005,yes
24,English,focus,purple,brown,tan,Player C messed up,all-all-none,all-all-none,-2,7,6943,yes
25,english,focus,lightorange,yellow,midnight,Player C made no shots,none-all-all,all-none-all,24,1,4049,
25,english,focus,darkorange,seafoam,lightblue,We have a clear winner,half-half-half,half-half-half,25,1,4592,
25,english,focus,tan,wheat,lavender,We have a clear loser,all-all-all,all-all-all,26,1,3322,
25,english,focus,tan,darkorange,purple,No player hit <b>NONE</b> of his shots,none-half-half,none-half-half,27,1,14770,
25,english,focus,brown,darkorange,wheat,Someone did better than Player B,half-half-all,half-all-half,20,1,6075,
25,english,focus,lavender,seafoam,midnight,Player C shot perfectly,none-all-all,none-all-all,21,7,3545,
25,english,focus,royalblue,yellow,wheat,Someone did better than Player C,none-half-half,half-none-half,22,1,4235,
25,english,focus,grey,yellow,purple,Most of the players made shots,half-half-half,half-half-half,23,7,3119,
25,english,focus,pink,royalblue,lightblue,No player hit <b>ALL</b> of his shots,half-half-half,half-half-half,28,7,3873,
25,english,focus,yellow,grey,pink,Player B shot perfectly,all-all-all,all-all-all,1,7,4552,
25,english,focus,lightorange,grey,royalblue,Every player hit <b>SOME</b> of his shots,half-half-half,half-half-half,0,7,6085,
25,english,focus,midnight,tan,wheat,Player A tied with Player C,none-none-all,all-none-none,3,1,4250,
25,english,focus,purple,darkorange,lightblue,Player B placed second,half-all-all,all-all-half,2,1,6108,
25,english,focus,lavender,lightblue,yellow,Player B made no shots,none-half-half,half-half-none,5,1,3540,
25,english,focus,tan,yellow,pink,Someone did better than Player A,none-all-all,all-all-none,4,1,6558,
25,english,focus,wheat,midnight,darkorange,Player A made no shots,none-half-all,all-half-none,7,1,4266,
25,english,focus,purple,lavender,tan,Player A tied with Player B,none-all-all,all-none-all,6,1,4956,
25,english,focus,pink,brown,yellow,Exactly one player hit <b>SOME</b> of his shots,all-all-all,all-all-all,9,1,7225,
25,english,focus,royalblue,wheat,yellow,Player A placed second,none-none-half,none-none-half,8,7,6564,
25,english,focus,yellow,lavender,lightorange,Every player hit <b>ALL</b> of his shots,none-all-all,all-none-all,11,1,4249,
25,english,focus,brown,lightorange,purple,Player A shot perfectly,none-none-all,all-none-none,10,7,3494,
25,english,focus,pink,lightblue,darkorange,Every player hit <b>NONE</b> of his shots,half-half-half,half-half-half,13,1,3634,
25,english,focus,brown,yellow,midnight,Player B tied with Player C,none-none-all,none-all-none,12,1,4646,
25,english,focus,pink,darkorange,brown,Exactly one player hit <b>NONE</b> of his shots,none-half-half,half-half-none,15,7,5665,
25,english,focus,purple,darkorange,pink,No player hit <b>SOME</b> of his shots,half-all-all,half-all-all,14,1,6860,
25,english,focus,royalblue,yellow,brown,Most of the players missed shots,none-none-half,none-half-none,17,6,6262,
25,english,focus,lavender,darkorange,grey,Exactly one player hit <b>ALL</b> of his shots,half-half-all,all-half-half,16,7,5286,
25,english,focus,midnight,lightorange,brown,Player C placed second,half-half-all,all-half-half,19,6,5618,
25,english,focus,grey,tan,yellow,All the players are tied,half-half-half,half-half-half,18,7,3763,
25,english,focus,seafoam,royalblue,grey,Player A was the star player of the round,most-none-all,most-none-all,-1,2,10681,yes
25,english,focus,tan,seafoam,lavender,Player A made none of his baskets,all-none-few,all-none-few,-3,1,12934,yes
25,english,focus,lavender,royalblue,yellow,Player C messed up,all-all-none,all-all-none,-2,7,6908,yes
26,American English,focus,darkorange,purple,seafoam,Every player hit <b>NONE</b> of his shots,none-half-half,half-none-half,24,1,5699,
26,American English,focus,purple,seafoam,wheat,Someone did better than Player A,none-half-half,none-half-half,25,6,7156,
26,American English,focus,seafoam,purple,lightblue,All the players are tied,half-all-all,all-all-half,26,1,5035,
26,American English,focus,darkorange,seafoam,yellow,Player C placed second,half-half-half,half-half-half,27,2,14966,
26,American English,focus,darkorange,brown,lightorange,Player A tied with Player B,none-all-all,none-all-all,20,1,5238,
26,American English,focus,purple,wheat,grey,Player B shot perfectly,all-all-all,all-all-all,21,6,5578,
26,American English,focus,seafoam,grey,lightorange,Player C made no shots,half-half-half,half-half-half,22,1,4239,
26,American English,focus,royalblue,purple,seafoam,We have a clear loser,none-all-all,all-none-all,23,7,4780,
26,American English,focus,royalblue,tan,lightblue,Player A placed second,all-all-all,all-all-all,28,2,5055,
26,American English,focus,grey,lightblue,wheat,Player B placed second,none-none-half,none-none-half,1,4,10188,
26,American English,focus,lavender,lightblue,seafoam,Player A shot perfectly,half-half-all,half-all-half,0,1,5935,
26,American English,focus,tan,lavender,lightorange,Every player hit <b>SOME</b> of his shots,all-all-all,all-all-all,3,2,6339,
26,American English,focus,darkorange,tan,yellow,Most of the players made shots,none-half-half,half-none-half,2,6,7730,
26,American English,focus,darkorange,grey,seafoam,Player A made no shots,none-half-all,none-all-half,5,7,4391,
26,American English,focus,wheat,seafoam,lightorange,No player hit <b>ALL</b> of his shots,half-all-all,all-half-all,4,1,6824,
26,American English,focus,royalblue,purple,lightorange,Player A tied with Player C,none-all-all,all-all-none,7,1,7420,
26,American English,focus,pink,lightorange,seafoam,Exactly one player hit <b>NONE</b> of his shots,half-all-all,all-all-half,6,1,10241,
26,American English,focus,pink,purple,darkorange,Exactly one player hit <b>SOME</b> of his shots,none-half-all,all-half-none,9,7,13420,
26,American English,focus,lightblue,pink,seafoam,Player B made no shots,half-half-half,half-half-half,8,1,5906,
26,American English,focus,midnight,grey,seafoam,Player C shot perfectly,none-none-none,none-none-none,11,1,5975,
26,American English,focus,midnight,lavender,brown,Someone did better than Player B,none-none-all,none-all-none,10,1,6372,
26,American English,focus,seafoam,royalblue,wheat,Someone did better than Player C,none-half-all,none-half-all,13,1,4647,
26,American English,focus,purple,seafoam,pink,No player hit <b>NONE</b> of his shots,none-none-none,none-none-none,12,1,7353,
26,American English,focus,tan,seafoam,lightblue,Exactly one player hit <b>ALL</b> of his shots,none-all-all,none-all-all,15,1,6748,
26,American English,focus,pink,seafoam,brown,We have a clear winner,none-half-all,none-all-half,14,7,6064,
26,American English,focus,tan,lightblue,wheat,Most of the players missed shots,none-all-all,all-none-all,17,2,6018,
26,American English,focus,midnight,purple,tan,Every player hit <b>ALL</b> of his shots,none-all-all,none-all-all,16,1,4220,
26,American English,focus,wheat,purple,darkorange,Player B tied with Player C,none-half-half,half-half-none,19,1,6425,
26,American English,focus,yellow,lightblue,tan,No player hit <b>SOME</b> of his shots,all-all-all,all-all-all,18,6,7227,
26,American English,focus,pink,yellow,lavender,Player A was the star player of the round,most-none-all,most-none-all,-1,1,11339,yes
26,American English,focus,brown,yellow,wheat,Player A made none of his baskets,all-none-few,all-none-few,-3,1,54483,no
26,American English,focus,midnight,grey,wheat,Player C messed up,all-all-none,all-all-none,-2,7,9958,yes
27,English,only,royalblue,brown,pink,Player C shot perfectly,half-half-all,half-all-half,24,1,3768,
27,English,only,tan,royalblue,grey,Player A placed second,none-half-half,none-half-half,25,2,7026,
27,English,only,yellow,brown,midnight,We have a clear loser,none-half-half,half-none-half,26,7,4266,
27,English,only,lightorange,midnight,wheat,Exactly one player hit all of his shots,half-half-all,half-half-all,27,7,4184,
27,English,only,wheat,brown,yellow,Most of the players made shots,all-all-all,all-all-all,20,5,4116,
27,English,only,lightorange,pink,wheat,Player B made no shots,none-half-all,all-half-none,21,2,3972,
27,English,only,lightorange,grey,pink,Exactly one player hit only some of his shots,none-all-all,all-none-all,22,1,6999,
27,English,only,midnight,lavender,lightblue,All the players are tied,half-half-all,all-half-half,23,1,3839,
27,English,only,brown,lightorange,grey,Every player hit all of his shots,half-all-all,half-all-all,28,1,3511,
27,English,only,wheat,royalblue,lavender,Player B shot perfectly,none-all-all,none-all-all,1,7,4660,
27,English,only,royalblue,lightorange,seafoam,Player B tied with Player C,none-none-half,none-half-none,0,1,4572,
27,English,only,royalblue,lightorange,midnight,Player C made no shots,all-all-all,all-all-all,3,1,3241,
27,English,only,grey,lightblue,yellow,Someone did better than Player A,all-all-all,all-all-all,2,1,4223,
27,English,only,wheat,pink,lightorange,Player C placed second,all-all-all,all-all-all,5,1,2972,
27,English,only,midnight,purple,pink,Most of the players missed shots,none-none-all,none-all-none,4,6,3300,
27,English,only,midnight,grey,darkorange,No player hit none of his shots,half-half-half,half-half-half,7,7,4324,
27,English,only,wheat,seafoam,midnight,Exactly one player hit none of his shots,none-half-half,none-half-half,6,6,5888,
27,English,only,yellow,lightblue,tan,Player A tied with Player B,half-half-half,half-half-half,9,7,4758,
27,English,only,yellow,lightorange,grey,Every player hit none of his shots,half-half-all,half-half-all,8,1,3031,
27,English,only,purple,grey,wheat,Someone did better than Player B,half-half-all,half-all-half,11,1,3002,
27,English,only,lavender,brown,midnight,Player A shot perfectly,none-none-half,none-none-half,10,1,3289,
27,English,only,yellow,lightblue,brown,Player B placed second,half-half-half,half-half-half,13,1,2946,
27,English,only,grey,seafoam,royalblue,Every player hit only some of his shots,half-half-half,half-half-half,12,6,3593,
27,English,only,darkorange,lightorange,wheat,We have a clear winner,half-half-all,half-all-half,15,7,4231,
27,English,only,grey,wheat,tan,Player A made no shots,none-none-none,none-none-none,14,7,2615,
27,English,only,purple,tan,yellow,No player hit all of his shots,none-none-none,none-none-none,17,3,5368,
27,English,only,brown,purple,lightblue,No player hit only some of his shots,none-half-half,half-half-none,16,2,2840,
27,English,only,lightblue,royalblue,grey,Player A tied with Player C,all-all-all,all-all-all,19,7,2657,
27,English,only,lavender,lightorange,tan,Someone did better than Player C,half-half-all,half-all-half,18,6,3384,
27,English,only,lightblue,midnight,lavender,Player A was the star player of the round,most-none-all,most-none-all,-1,2,9115,no
27,English,only,lightorange,purple,seafoam,Player A made none of his baskets,all-none-few,all-none-few,-3,1,8909,yes
27,English,only,yellow,tan,pink,Player C messed up,all-all-none,all-all-none,-2,6,5073,yes
28,English,focus,pink,purple,lightblue,We have a clear winner,none-none-none,none-none-none,24,1,4036,
28,English,focus,yellow,darkorange,midnight,Player A tied with Player B,all-all-all,all-all-all,25,7,3526,
28,English,focus,lavender,yellow,tan,Player C made no shots,none-none-none,none-none-none,26,7,2758,
28,English,focus,royalblue,pink,darkorange,Most of the players missed shots,none-none-none,none-none-none,27,7,4122,
28,English,focus,purple,wheat,royalblue,All the players are tied,none-none-none,none-none-none,20,7,4546,
28,English,focus,midnight,pink,grey,Player B placed second,none-half-all,none-all-half,21,1,3936,
28,English,focus,brown,lightorange,lightblue,Most of the players made shots,half-half-half,half-half-half,22,5,8058,
28,English,focus,yellow,midnight,lavender,Player A placed second,none-none-half,none-none-half,23,6,6229,
28,English,focus,tan,darkorange,brown,Someone did better than Player A,none-all-all,all-all-none,28,1,5403,
28,English,focus,grey,midnight,purple,Someone did better than Player C,half-half-half,half-half-half,1,1,10969,
28,English,focus,grey,wheat,purple,No player hit <b>ALL</b> of his shots,all-all-all,all-all-all,0,1,6315,
28,English,focus,midnight,lavender,seafoam,We have a clear loser,none-half-half,half-half-none,3,7,5377,
28,English,focus,tan,pink,wheat,Player B tied with Player C,none-all-all,all-all-none,2,1,9353,
28,English,focus,yellow,lightorange,darkorange,No player hit <b>NONE</b> of his shots,all-all-all,all-all-all,5,7,6003,
28,English,focus,brown,midnight,lightblue,Player B shot perfectly,half-all-all,all-half-all,4,1,6450,
28,English,focus,brown,midnight,lavender,Player C placed second,none-half-half,none-half-half,7,4,9198,
28,English,focus,brown,lightblue,lavender,Every player hit <b>NONE</b> of his shots,half-half-half,half-half-half,6,1,4798,
28,English,focus,darkorange,seafoam,yellow,Exactly one player hit <b>ALL</b> of his shots,none-none-all,none-all-none,9,7,8086,
28,English,focus,darkorange,pink,lavender,No player hit <b>SOME</b> of his shots,none-none-half,half-none-none,8,1,5755,
28,English,focus,lightorange,pink,lavender,Every player hit <b>SOME</b> of his shots,half-half-half,half-half-half,11,7,4750,
28,English,focus,tan,brown,grey,Player A shot perfectly,half-all-all,half-all-all,10,1,3261,
28,English,focus,wheat,lavender,midnight,Someone did better than Player B,half-half-all,half-half-all,13,7,4399,
28,English,focus,darkorange,pink,wheat,Every player hit <b>ALL</b> of his shots,all-all-all,all-all-all,12,7,2354,
28,English,focus,lightorange,brown,lavender,Player A tied with Player C,none-half-all,none-all-half,15,1,3422,
28,English,focus,yellow,midnight,purple,Player A made no shots,none-none-none,none-none-none,14,7,3746,
28,English,focus,wheat,lightblue,purple,Exactly one player hit <b>NONE</b> of his shots,none-half-all,half-none-all,17,7,6578,
28,English,focus,purple,wheat,grey,Player C shot perfectly,half-half-half,half-half-half,16,1,3533,
28,English,focus,lightblue,grey,lightorange,Player B made no shots,none-none-all,none-none-all,19,7,3181,
28,English,focus,grey,seafoam,pink,Exactly one player hit <b>SOME</b> of his shots,half-half-half,half-half-half,18,1,3149,
28,English,focus,seafoam,pink,royalblue,Player A was the star player of the round,most-none-all,most-none-all,-1,1,8835,yes
28,English,focus,purple,lightorange,pink,Player A made none of his baskets,all-none-few,all-none-few,-3,1,16720,yes
28,English,focus,darkorange,purple,grey,Player C messed up,all-all-none,all-all-none,-2,7,19783,no
29,english,only,purple,royalblue,brown,Every player hit only some of his shots,none-none-half,none-half-none,24,1,4475,
29,english,only,midnight,lightblue,seafoam,No player hit all of his shots,none-half-all,all-none-half,25,1,3553,
29,english,only,purple,lightorange,brown,Exactly one player hit none of his shots,all-all-all,all-all-all,26,1,3458,
29,english,only,grey,tan,royalblue,Most of the players made shots,none-all-all,all-none-all,27,7,4654,
29,english,only,lightorange,brown,darkorange,Player A tied with Player B,none-none-all,none-none-all,20,7,4306,
29,english,only,lavender,purple,darkorange,Someone did better than Player B,none-none-none,none-none-none,21,1,4399,
29,english,only,grey,pink,lightorange,Player C placed second,half-all-all,all-half-all,22,4,7161,
29,english,only,pink,tan,lightorange,No player hit only some of his shots,half-half-all,half-half-all,23,1,8689,
29,english,only,royalblue,lightblue,lightorange,Player B shot perfectly,none-none-all,none-all-none,28,7,3675,
29,english,only,grey,darkorange,lavender,All the players are tied,none-none-all,none-none-all,1,1,5028,
29,english,only,seafoam,midnight,darkorange,We have a clear loser,none-all-all,all-all-none,0,7,6600,
29,english,only,lavender,tan,brown,Player A shot perfectly,half-half-half,half-half-half,3,1,6514,
29,english,only,lightorange,lightblue,purple,Every player hit none of his shots,half-half-half,half-half-half,2,1,5603,
