workerid,Answer.language,player1color,player2color,player3color,sentence,condition,conditionOrder,trialnum,response,rt,trainingCorrect
1,English,tan,lightorange,royalblue,Someone did better than Player C,half-all-all,half-all-all,24,1,6788,NA
1,English,lightorange,royalblue,darkorange,Someone did better than Player B,half-half-half,half-half-half,25,1,4051,NA
1,English,yellow,wheat,darkorange,We have a clear winner,none-none-half,half-none-none,26,7,5519,NA
1,English,yellow,wheat,darkorange,Exactly one player hit none of his shots,none-half-half,half-none-half,27,7,3487,NA
1,English,royalblue,grey,darkorange,Most of the players missed shots,none-half-all,half-none-all,20,7,7999,NA
1,English,yellow,wheat,seafoam,Player B shot perfectly,all-all-all,all-all-all,21,7,5155,NA
1,English,brown,grey,lightorange,Every player hit some of his shots,none-none-none,none-none-none,22,1,4282,NA
1,English,seafoam,lavender,lightblue,No player hit none of his shots,none-none-none,none-none-none,23,4,23386,NA
1,English,midnight,darkorange,royalblue,Player A made no shots,none-half-all,half-none-all,28,1,3363,NA
1,English,lightorange,brown,pink,All the players are tied,none-half-all,none-all-half,1,1,26924,NA
1,English,grey,tan,darkorange,Every player hit none of his shots,none-none-none,none-none-none,0,7,7570,NA
1,English,tan,lightblue,midnight,We have a clear loser,all-all-all,all-all-all,3,1,5348,NA
1,English,lightblue,grey,darkorange,Player C shot perfectly,half-half-all,half-all-half,2,1,9671,NA
1,English,lavender,yellow,darkorange,Every player hit all of his shots,half-half-half,half-half-half,5,1,4228,NA
1,English,lavender,tan,seafoam,Player A tied with Player B,all-all-all,all-all-all,4,7,10950,NA
1,English,tan,pink,darkorange,Player A placed second,none-none-all,all-none-none,7,1,6100,NA
1,English,darkorange,pink,midnight,Player A tied with Player C,none-none-half,none-half-none,6,7,4698,NA
1,English,seafoam,midnight,purple,Exactly one player hit all of his shots,all-all-all,all-all-all,9,1,3923,NA
1,English,brown,seafoam,yellow,Player B placed second,all-all-all,all-all-all,8,1,10483,NA
1,English,purple,seafoam,darkorange,No player hit all of his shots,half-all-all,all-all-half,11,1,4943,NA
1,English,yellow,lightblue,seafoam,Player B tied with Player C,none-none-none,none-none-none,10,4,13403,NA
1,English,lavender,tan,wheat,No player hit some of his shots,none-none-none,none-none-none,13,7,5995,NA
1,English,lightorange,wheat,seafoam,Player B made no shots,none-none-all,all-none-none,12,7,4768,NA
1,English,midnight,pink,purple,Player A shot perfectly,none-none-half,none-none-half,15,1,3670,NA
1,English,seafoam,tan,purple,Player C placed second,none-none-none,none-none-none,14,2,4927,NA
1,English,seafoam,tan,brown,Player C made no shots,half-all-all,all-half-all,17,1,3619,NA
1,English,lightblue,seafoam,grey,Most of the players made shots,half-half-half,half-half-half,16,5,8843,NA
1,English,pink,midnight,wheat,Exactly one player hit some of his shots,none-half-half,half-half-none,19,1,4663,NA
1,English,wheat,brown,tan,Someone did better than Player A,half-half-half,half-half-half,18,1,5628,NA
1,English,wheat,yellow,purple,Player A was the star player of the round,most-none-all,most-none-all,-1,1,12404,yes
1,English,yellow,tan,brown,Player A made none of his baskets,all-none-few,all-none-few,-3,1,17269,yes
1,English,purple,grey,tan,Player C messed up,all-all-none,all-all-none,-2,7,8706,yes
2,english,tan,royalblue,grey,Someone did better than Player C,none-none-half,half-none-none,24,7,2409,NA
2,english,lightblue,wheat,lightorange,All the players are tied,half-half-all,all-half-half,25,1,2221,NA
2,english,lightblue,royalblue,brown,We have a clear loser,none-none-none,none-none-none,26,1,2487,NA
2,english,yellow,darkorange,pink,Player A placed second,none-all-all,all-none-all,27,1,2731,NA
2,english,wheat,midnight,darkorange,Player B tied with Player C,none-half-all,half-none-all,20,1,3197,NA
2,english,pink,seafoam,lavender,Someone did better than Player B,none-half-half,half-half-none,21,1,3995,NA
2,english,wheat,seafoam,lightorange,Exactly one player hit some of his shots,none-none-half,none-half-none,22,7,3320,NA
2,english,pink,midnight,brown,Player A shot perfectly,half-all-all,all-half-all,23,7,2757,NA
2,english,tan,midnight,lightblue,Most of the players made shots,none-none-half,none-half-none,28,1,4462,NA
2,english,purple,midnight,yellow,No player hit none of his shots,none-half-half,half-half-none,1,1,4756,NA
2,english,grey,yellow,lightorange,Every player hit none of his shots,half-all-all,all-half-all,0,1,4271,NA
2,english,seafoam,midnight,yellow,Exactly one player hit all of his shots,half-half-all,half-all-half,3,7,3929,NA
2,english,purple,lightblue,royalblue,No player hit some of his shots,half-all-all,all-half-all,2,1,5355,NA
2,english,yellow,seafoam,midnight,No player hit all of his shots,none-none-none,none-none-none,5,7,3325,NA
2,english,purple,lightorange,yellow,Player A made no shots,none-all-all,all-none-all,4,1,2805,NA
2,english,seafoam,lightorange,grey,Someone did better than Player A,none-all-all,all-none-all,7,1,4623,NA
2,english,yellow,lightblue,purple,Most of the players missed shots,none-none-half,half-none-none,6,7,3602,NA
2,english,purple,royalblue,pink,Player C placed second,none-half-half,half-none-half,9,4,7670,NA
2,english,grey,pink,yellow,Player A tied with Player B,none-all-all,all-none-all,8,1,2866,NA
2,english,midnight,darkorange,pink,Player B placed second,half-all-all,all-all-half,11,3,5788,NA
2,english,lightblue,midnight,yellow,We have a clear winner,none-none-none,none-none-none,10,1,3556,NA
2,english,wheat,tan,royalblue,Exactly one player hit none of his shots,all-all-all,all-all-all,13,1,3829,NA
2,english,yellow,pink,purple,Player C shot perfectly,none-none-none,none-none-none,12,1,3319,NA
2,english,royalblue,lightorange,seafoam,Player B made no shots,none-none-none,none-none-none,15,7,2100,NA
2,english,brown,seafoam,pink,Player C made no shots,none-half-all,half-all-none,14,7,2830,NA
2,english,tan,lightorange,royalblue,Every player hit all of his shots,half-half-half,half-half-half,17,1,2750,NA
2,english,darkorange,wheat,yellow,Every player hit some of his shots,none-half-half,half-half-none,16,1,2978,NA
2,english,pink,seafoam,royalblue,Player B shot perfectly,none-half-half,none-half-half,19,1,2514,NA
2,english,brown,darkorange,royalblue,Player A tied with Player C,half-half-all,half-half-all,18,1,3212,NA
2,english,royalblue,purple,brown,Player A was the star player of the round,most-none-all,most-none-all,-1,1,8114,yes
2,english,pink,grey,yellow,Player A made none of his baskets,all-none-few,all-none-few,-3,1,11756,yes
2,english,royalblue,seafoam,purple,Player C messed up,all-all-none,all-all-none,-2,7,4821,yes
3,English,grey,lightorange,midnight,Player C placed second,none-none-half,none-half-none,24,6,2236,NA
3,English,darkorange,royalblue,yellow,Every player hit none of his shots,none-all-all,all-none-all,25,2,1578,NA
3,English,pink,royalblue,darkorange,Player A tied with Player B,none-none-none,none-none-none,26,5,2085,NA
3,English,pink,lightorange,royalblue,Most of the players made shots,none-none-half,half-none-none,27,2,2396,NA
3,English,lightblue,yellow,seafoam,No player hit all of his shots,half-half-half,half-half-half,20,5,1724,NA
3,English,wheat,brown,midnight,Player B shot perfectly,none-none-half,none-half-none,21,3,1316,NA
3,English,lavender,seafoam,royalblue,Player B made no shots,none-none-all,all-none-none,22,2,3172,NA
3,English,lightblue,tan,midnight,Player B placed second,none-none-all,none-none-all,23,6,3484,NA
3,English,darkorange,royalblue,lightblue,Player A shot perfectly,none-none-none,none-none-none,28,6,3339,NA
3,English,grey,royalblue,lavender,All the players are tied,half-half-half,half-half-half,1,5,1881,NA
3,English,tan,seafoam,brown,We have a clear winner,none-all-all,all-all-none,0,2,5331,NA
3,English,purple,midnight,grey,Most of the players missed shots,half-all-all,half-all-all,3,3,2514,NA
3,English,lavender,lightorange,purple,Someone did better than Player C,none-all-all,all-none-all,2,6,2819,NA
3,English,grey,brown,lavender,Someone did better than Player B,half-all-all,all-all-half,5,5,1468,NA
3,English,purple,yellow,wheat,Player A tied with Player C,none-all-all,none-all-all,4,6,1853,NA
3,English,lavender,darkorange,tan,Exactly one player hit all of his shots,none-all-all,none-all-all,7,6,2140,NA
3,English,lavender,seafoam,midnight,Someone did better than Player A,none-none-none,none-none-none,6,2,1868,NA
3,English,pink,wheat,royalblue,No player hit none of his shots,none-none-all,all-none-none,9,6,1918,NA
3,English,lightblue,wheat,brown,Exactly one player hit some of his shots,all-all-all,all-all-all,8,2,2467,NA
3,English,tan,royalblue,seafoam,Player A placed second,none-none-all,all-none-none,11,2,2093,NA
3,English,tan,royalblue,wheat,Every player hit some of his shots,none-all-all,all-all-none,10,6,2176,NA
3,English,yellow,grey,pink,Exactly one player hit none of his shots,half-half-all,all-half-half,13,5,2012,NA
3,English,pink,lightorange,brown,Player C shot perfectly,half-half-all,all-half-half,12,6,2330,NA
3,English,lavender,purple,lightblue,Every player hit all of his shots,none-half-half,half-half-none,15,6,1487,NA
3,English,seafoam,midnight,darkorange,Player B tied with Player C,none-all-all,all-none-all,14,2,1953,NA
3,English,darkorange,wheat,grey,Player A made no shots,none-none-half,none-half-none,17,6,1695,NA
3,English,royalblue,seafoam,pink,Player C made no shots,half-all-all,half-all-all,16,3,1708,NA
3,English,royalblue,pink,yellow,No player hit some of his shots,none-none-all,none-none-all,19,6,1733,NA
3,English,royalblue,lavender,lightblue,We have a clear loser,half-half-half,half-half-half,18,2,1598,NA
3,English,grey,darkorange,wheat,Player A was the star player of the round,most-none-all,most-none-all,-1,2,10473,no
3,English,midnight,royalblue,wheat,Player A made none of his baskets,all-none-few,all-none-few,-3,1,7111,yes
3,English,purple,wheat,brown,Player C messed up,all-all-none,all-all-none,-2,7,17792,no
4,NA,royalblue,yellow,darkorange,Player B placed second,half-half-all,half-all-half,24,2,5638,NA
4,NA,lightblue,pink,seafoam,Every player hit all of his shots,half-half-half,half-half-half,25,5,3396,NA
4,NA,grey,lavender,darkorange,Exactly one player hit all of his shots,none-all-all,all-none-all,26,5,7178,NA
4,NA,yellow,lavender,grey,Player C shot perfectly,half-half-all,all-half-half,27,6,5688,NA
4,NA,yellow,lightorange,grey,Player B shot perfectly,half-half-all,half-all-half,20,2,5328,NA
4,NA,seafoam,wheat,purple,No player hit none of his shots,none-half-all,all-half-none,21,5,3955,NA
4,NA,wheat,royalblue,lightorange,Player A tied with Player C,none-none-all,none-none-all,22,2,3243,NA
4,NA,yellow,lightorange,darkorange,We have a clear winner,none-all-all,all-all-none,23,3,4512,NA
4,NA,purple,pink,wheat,Player A placed second,none-half-half,half-half-none,28,2,2290,NA
4,NA,yellow,purple,seafoam,We have a clear loser,none-none-half,half-none-none,1,6,5399,NA
4,NA,lavender,yellow,midnight,Player A made no shots,half-half-half,half-half-half,0,4,2181,NA
4,NA,seafoam,lightblue,yellow,Player B made no shots,none-all-all,all-all-none,3,2,7183,NA
4,NA,pink,brown,seafoam,No player hit all of his shots,none-none-half,none-half-none,2,5,5296,NA
4,NA,midnight,lavender,yellow,Most of the players missed shots,half-half-all,half-half-all,5,6,46801,NA
4,NA,royalblue,darkorange,lightblue,Exactly one player hit some of his shots,none-all-all,all-all-none,4,5,9519,NA
4,NA,lightblue,lavender,royalblue,Someone did better than Player B,none-none-none,none-none-none,7,5,6633,NA
4,NA,tan,yellow,midnight,No player hit some of his shots,none-none-half,none-half-none,6,4,4864,NA
4,NA,purple,grey,lightorange,Every player hit none of his shots,half-half-half,half-half-half,9,2,4998,NA
4,NA,pink,lightorange,seafoam,Most of the players made shots,none-all-all,all-all-none,8,4,8123,NA
4,NA,seafoam,wheat,lightorange,Exactly one player hit none of his shots,none-none-all,none-none-all,11,2,5292,NA
4,NA,grey,tan,wheat,All the players are tied,half-half-half,half-half-half,10,3,7783,NA
4,NA,midnight,lightblue,darkorange,Player A tied with Player B,half-half-half,half-half-half,13,2,5031,NA
4,NA,midnight,tan,pink,Someone did better than Player A,none-half-all,all-half-none,12,4,4249,NA
4,NA,yellow,darkorange,purple,Every player hit some of his shots,none-none-none,none-none-none,15,4,4262,NA
4,NA,brown,lightorange,grey,Player C made no shots,none-half-half,half-half-none,14,4,5949,NA
4,NA,brown,pink,wheat,Player C placed second,all-all-all,all-all-all,17,3,4646,NA
4,NA,lavender,darkorange,midnight,Player A shot perfectly,half-half-half,half-half-half,16,1,8564,NA
4,NA,grey,pink,seafoam,Player B tied with Player C,half-all-all,all-all-half,19,3,6358,NA
4,NA,darkorange,royalblue,yellow,Someone did better than Player C,none-none-all,none-all-none,18,4,3482,NA
4,NA,grey,purple,tan,Player A was the star player of the round,most-none-all,most-none-all,-1,2,7562,no
4,NA,grey,midnight,tan,Player A made none of his baskets,all-none-few,all-none-few,-3,1,18665,no
4,NA,lightorange,midnight,darkorange,Player C messed up,all-all-none,all-all-none,-2,6,5370,yes
5,NA,yellow,seafoam,midnight,Exactly one player hit all of his shots,half-half-half,half-half-half,24,5,4143,NA
5,NA,brown,midnight,royalblue,Player A made no shots,none-none-none,none-none-none,25,7,5438,NA
5,NA,wheat,purple,grey,Player A shot perfectly,none-none-none,none-none-none,26,5,3973,NA
5,NA,royalblue,lightblue,pink,Player B shot perfectly,half-half-half,half-half-half,27,2,6804,NA
5,NA,lightblue,seafoam,lavender,Someone did better than Player B,none-none-none,none-none-none,20,6,6043,NA
5,NA,seafoam,purple,lightorange,Player C placed second,half-all-all,all-all-half,21,6,5526,NA
5,NA,brown,midnight,seafoam,All the players are tied,none-none-none,none-none-none,22,4,3933,NA
5,NA,lightblue,lightorange,brown,Player C shot perfectly,half-half-all,half-all-half,23,6,3505,NA
5,NA,purple,tan,grey,No player hit some of his shots,none-none-none,none-none-none,28,4,5013,NA
5,NA,wheat,lavender,purple,Most of the players made shots,none-none-none,none-none-none,1,3,4639,NA
5,NA,tan,brown,purple,Exactly one player hit some of his shots,none-none-all,none-all-none,0,2,3030,NA
5,NA,yellow,lavender,brown,Every player hit none of his shots,none-none-half,none-half-none,3,6,5344,NA
5,NA,wheat,lightblue,yellow,We have a clear winner,none-half-all,half-all-none,2,5,7557,NA
5,NA,brown,lightblue,grey,Player A placed second,half-half-half,half-half-half,5,2,5410,NA
5,NA,wheat,purple,yellow,Every player hit some of his shots,half-half-half,half-half-half,4,6,3222,NA
5,NA,royalblue,pink,brown,Player A tied with Player B,none-none-half,half-none-none,7,2,11755,NA
5,NA,midnight,lavender,pink,Player C made no shots,none-all-all,all-all-none,6,2,35623,NA
5,NA,grey,lavender,tan,Player B placed second,half-half-half,half-half-half,9,5,8595,NA
5,NA,lightorange,pink,tan,Someone did better than Player C,none-none-half,none-half-none,8,2,6616,NA
5,NA,pink,brown,seafoam,Someone did better than Player A,half-half-half,half-half-half,11,6,5446,NA
5,NA,lavender,grey,tan,Player B tied with Player C,none-none-none,none-none-none,10,6,3962,NA
5,NA,darkorange,royalblue,wheat,No player hit none of his shots,half-half-all,all-half-half,13,5,4153,NA
5,NA,grey,seafoam,royalblue,Player A tied with Player C,all-all-all,all-all-all,12,5,8102,NA
5,NA,royalblue,brown,tan,Player B made no shots,none-all-all,none-all-all,15,6,5671,NA
5,NA,midnight,royalblue,grey,Most of the players missed shots,half-all-all,half-all-all,14,6,5897,NA
5,NA,yellow,darkorange,royalblue,Every player hit all of his shots,half-all-all,all-all-half,17,7,6899,NA
5,NA,wheat,darkorange,brown,No player hit all of his shots,none-half-half,half-half-none,16,5,4667,NA
5,NA,purple,brown,darkorange,We have a clear loser,half-half-all,half-half-all,19,5,4194,NA
5,NA,lightblue,yellow,pink,Exactly one player hit none of his shots,none-half-half,none-half-half,18,4,5224,NA
5,NA,grey,midnight,pink,Player A was the star player of the round,most-none-all,most-none-all,-1,2,7679,yes
5,NA,lavender,pink,purple,Player A made none of his baskets,all-none-few,all-none-few,-3,1,20721,no
5,NA,seafoam,midnight,purple,Player C messed up,all-all-none,all-all-none,-2,6,4493,yes
6,NA,pink,midnight,grey,Player A made no shots,none-all-all,none-all-all,24,7,4053,NA
6,NA,darkorange,lightorange,pink,Someone did better than Player A,none-none-none,none-none-none,25,1,3510,NA
6,NA,lavender,seafoam,grey,Someone did better than Player B,none-half-half,half-half-none,26,1,4406,NA
6,NA,tan,yellow,brown,Every player hit some of his shots,none-half-all,all-none-half,27,1,4597,NA
6,NA,purple,lightblue,midnight,Player A tied with Player B,all-all-all,all-all-all,20,7,4365,NA
6,NA,wheat,royalblue,grey,Exactly one player hit all of his shots,none-none-half,half-none-none,21,1,4478,NA
6,NA,pink,wheat,grey,Exactly one player hit none of his shots,none-none-half,none-none-half,22,1,4598,NA
6,NA,yellow,tan,pink,Player B made no shots,none-half-half,half-half-none,23,1,4910,NA
6,NA,royalblue,tan,lightorange,All the players are tied,half-all-all,all-half-all,28,1,2941,NA
6,NA,tan,yellow,brown,We have a clear winner,none-none-all,none-none-all,1,7,4846,NA
6,NA,seafoam,brown,lightblue,No player hit none of his shots,none-all-all,all-none-all,0,1,8332,NA
6,NA,yellow,darkorange,lightblue,No player hit some of his shots,none-half-all,half-all-none,3,1,14591,NA
6,NA,yellow,pink,lightorange,Player B tied with Player C,none-none-half,none-half-none,2,1,4262,NA
6,NA,darkorange,midnight,grey,Player A shot perfectly,half-all-all,all-half-all,5,7,3686,NA
6,NA,pink,royalblue,lavender,Most of the players made shots,half-half-half,half-half-half,4,7,6269,NA
6,NA,seafoam,royalblue,tan,No player hit all of his shots,none-none-none,none-none-none,7,7,3527,NA
6,NA,tan,seafoam,pink,Player A tied with Player C,none-half-all,half-all-none,6,1,4359,NA
6,NA,pink,darkorange,royalblue,Exactly one player hit some of his shots,none-half-all,half-all-none,9,1,8830,NA
6,NA,lightorange,grey,pink,Player B placed second,all-all-all,all-all-all,8,1,2677,NA
6,NA,lightblue,yellow,midnight,Every player hit none of his shots,none-half-half,half-half-none,11,1,8247,NA
6,NA,pink,midnight,seafoam,Most of the players missed shots,none-half-all,none-half-all,10,1,2950,NA
6,NA,royalblue,lightblue,darkorange,Player C made no shots,none-half-half,none-half-half,13,1,4647,NA
6,NA,yellow,grey,wheat,Player C placed second,none-half-half,half-none-half,12,1,6908,NA
6,NA,midnight,tan,lightorange,Player A placed second,none-half-half,half-none-half,15,2,4444,NA
6,NA,pink,lavender,yellow,We have a clear loser,half-half-all,all-half-half,14,2,5623,NA
6,NA,wheat,royalblue,yellow,Player B shot perfectly,all-all-all,all-all-all,17,7,4566,NA
6,NA,darkorange,royalblue,purple,Player C shot perfectly,none-none-half,none-none-half,16,1,3278,NA
6,NA,seafoam,midnight,pink,Someone did better than Player C,all-all-all,all-all-all,19,1,4726,NA
6,NA,pink,tan,brown,Every player hit all of his shots,none-none-half,none-half-none,18,1,4678,NA
6,NA,royalblue,midnight,purple,Player A was the star player of the round,most-none-all,most-none-all,-1,1,9571,yes
6,NA,pink,yellow,lightorange,Player A made none of his baskets,all-none-few,all-none-few,-3,1,27442,no
6,NA,midnight,wheat,darkorange,Player C messed up,all-all-none,all-all-none,-2,7,7173,yes
7,NA,pink,brown,wheat,Most of the players missed shots,half-all-all,all-all-half,24,1,1929,NA
7,NA,yellow,midnight,pink,All the players are tied,none-none-half,none-half-none,25,1,2961,NA
7,NA,seafoam,lightblue,lavender,No player hit some of his shots,all-all-all,all-all-all,26,1,2584,NA
7,NA,brown,seafoam,lightblue,Player C placed second,none-none-all,none-all-none,27,1,2929,NA
7,NA,darkorange,lightorange,tan,Player B placed second,half-half-half,half-half-half,20,1,1743,NA
7,NA,pink,wheat,purple,Someone did better than Player A,all-all-all,all-all-all,21,1,3780,NA
7,NA,grey,tan,brown,No player hit none of his shots,half-half-half,half-half-half,22,7,3915,NA
7,NA,purple,tan,royalblue,Player B made no shots,none-half-all,half-all-none,23,1,2389,NA
7,NA,tan,seafoam,royalblue,We have a clear loser,all-all-all,all-all-all,28,1,3444,NA
7,NA,seafoam,royalblue,lightorange,Exactly one player hit none of his shots,half-half-all,all-half-half,1,1,3853,NA
7,NA,lightblue,grey,darkorange,Player A tied with Player C,all-all-all,all-all-all,0,7,4172,NA
7,NA,royalblue,darkorange,seafoam,Exactly one player hit all of his shots,all-all-all,all-all-all,3,1,3119,NA
7,NA,pink,grey,darkorange,Every player hit none of his shots,none-none-none,none-none-none,2,7,3108,NA
7,NA,pink,wheat,midnight,Player C made no shots,none-none-half,none-none-half,5,1,33782,NA
7,NA,wheat,purple,tan,Player A tied with Player B,none-all-all,all-none-all,4,1,3324,NA
7,NA,yellow,darkorange,grey,Player B shot perfectly,none-half-all,none-all-half,7,7,1901,NA
7,NA,purple,yellow,midnight,Exactly one player hit some of his shots,half-all-all,all-half-all,6,7,3634,NA
7,NA,darkorange,midnight,tan,Player C shot perfectly,all-all-all,all-all-all,9,7,2542,NA
7,NA,midnight,wheat,lightblue,Someone did better than Player C,half-half-half,half-half-half,8,1,3399,NA
7,NA,grey,lavender,seafoam,Player B tied with Player C,half-half-half,half-half-half,11,7,1883,NA
7,NA,lightblue,midnight,yellow,Someone did better than Player B,none-half-all,all-half-none,10,7,1912,NA
7,NA,pink,lightblue,midnight,Every player hit all of his shots,half-all-all,half-all-all,13,1,3119,NA
7,NA,wheat,brown,lavender,Player A made no shots,half-half-all,half-all-half,12,1,2808,NA
7,NA,royalblue,pink,tan,Player A placed second,none-none-none,none-none-none,15,1,2200,NA
7,NA,purple,grey,lightblue,Every player hit some of his shots,none-none-half,none-half-none,14,1,2266,NA
7,NA,royalblue,lightblue,wheat,Most of the players made shots,half-half-half,half-half-half,17,7,3146,NA
7,NA,tan,wheat,brown,Player A shot perfectly,half-all-all,half-all-all,16,1,3233,NA
7,NA,pink,lightorange,tan,No player hit all of his shots,none-none-none,none-none-none,19,7,2174,NA
7,NA,darkorange,pink,lavender,We have a clear winner,half-half-half,half-half-half,18,1,2841,NA
7,NA,yellow,lavender,wheat,Player A was the star player of the round,most-none-all,most-none-all,-1,1,6417,yes
7,NA,royalblue,midnight,lavender,Player A made none of his baskets,all-none-few,all-none-few,-3,1,20248,yes
7,NA,midnight,seafoam,purple,Player C messed up,all-all-none,all-all-none,-2,7,5231,yes
8,NA,lightorange,seafoam,midnight,Most of the players missed shots,half-all-all,all-all-half,24,1,4326,NA
8,NA,royalblue,grey,brown,Player B shot perfectly,none-none-none,none-none-none,25,1,2264,NA
8,NA,brown,wheat,lightorange,Someone did better than Player C,none-half-half,none-half-half,26,1,4209,NA
8,NA,darkorange,tan,brown,Every player hit none of his shots,none-all-all,all-all-none,27,1,3539,NA
8,NA,pink,yellow,grey,No player hit all of his shots,half-half-all,half-all-half,20,1,5030,NA
8,NA,grey,seafoam,tan,Every player hit some of his shots,none-none-half,half-none-none,21,1,8514,NA
8,NA,midnight,seafoam,tan,Most of the players made shots,half-half-half,half-half-half,22,4,7468,NA
8,NA,midnight,pink,yellow,We have a clear loser,half-half-half,half-half-half,23,1,4444,NA
8,NA,royalblue,lavender,yellow,Player A tied with Player C,half-half-all,all-half-half,28,1,3614,NA
8,NA,lightorange,purple,grey,No player hit none of his shots,none-none-none,none-none-none,1,2,21044,NA
8,NA,lightblue,darkorange,royalblue,No player hit some of his shots,none-none-all,none-all-none,0,1,129928,NA
8,NA,tan,midnight,purple,Player A made no shots,all-all-all,all-all-all,3,1,3562,NA
8,NA,darkorange,brown,purple,Player C shot perfectly,none-all-all,none-all-all,2,7,4732,NA
8,NA,purple,brown,royalblue,We have a clear winner,none-none-half,none-none-half,5,7,4019,NA
8,NA,royalblue,purple,yellow,Someone did better than Player B,half-all-all,half-all-all,4,1,5751,NA
8,NA,wheat,grey,lightorange,All the players are tied,none-none-all,none-all-none,7,3,8818,NA
8,NA,lightorange,lightblue,wheat,Exactly one player hit all of his shots,none-none-all,all-none-none,6,7,4991,NA
8,NA,grey,darkorange,brown,Every player hit all of his shots,none-half-half,half-none-half,9,1,3334,NA
8,NA,lavender,yellow,brown,Player A placed second,none-none-half,half-none-none,8,1,6257,NA
8,NA,seafoam,pink,wheat,Exactly one player hit some of his shots,none-half-all,half-all-none,11,7,5679,NA
8,NA,pink,lavender,tan,Player B placed second,half-half-all,all-half-half,10,3,6411,NA
8,NA,lightorange,tan,grey,Exactly one player hit none of his shots,none-none-half,half-none-none,13,1,20710,NA
8,NA,tan,grey,pink,Player B tied with Player C,half-all-all,all-all-half,12,1,4364,NA
8,NA,purple,darkorange,brown,Someone did better than Player A,none-half-all,none-half-all,15,7,4202,NA
8,NA,pink,darkorange,purple,Player B made no shots,none-none-all,all-none-none,14,7,3192,NA
8,NA,seafoam,pink,brown,Player C placed second,none-none-half,half-none-none,17,5,6310,NA
8,NA,lavender,purple,lightorange,Player A shot perfectly,none-all-all,all-all-none,16,7,3034,NA
8,NA,pink,tan,grey,Player C made no shots,half-half-all,all-half-half,19,1,4227,NA
8,NA,grey,pink,lavender,Player A tied with Player B,half-half-half,half-half-half,18,7,4068,NA
8,NA,yellow,pink,darkorange,Player A was the star player of the round,most-none-all,most-none-all,-1,1,12248,yes
8,NA,lightorange,darkorange,midnight,Player A made none of his baskets,all-none-few,all-none-few,-3,1,12675,yes
8,NA,lavender,tan,pink,Player C messed up,all-all-none,all-all-none,-2,6,8520,yes
9,NA,brown,yellow,darkorange,Every player hit none of his shots,half-half-all,half-half-all,24,1,5513,NA
9,NA,tan,seafoam,brown,Player A tied with Player B,none-none-half,none-half-none,25,1,4739,NA
9,NA,darkorange,wheat,seafoam,Player B shot perfectly,all-all-all,all-all-all,26,7,3514,NA
9,NA,lightorange,purple,darkorange,Most of the players missed shots,none-half-all,half-all-none,27,7,5813,NA
9,NA,seafoam,darkorange,brown,Player C shot perfectly,none-none-none,none-none-none,20,1,3956,NA
9,NA,lightorange,purple,tan,Exactly one player hit some of his shots,none-half-half,half-half-none,21,1,4240,NA
9,NA,grey,purple,yellow,No player hit all of his shots,half-half-all,half-all-half,22,1,4077,NA
9,NA,midnight,grey,seafoam,Player C placed second,none-all-all,all-none-all,23,1,8339,NA
9,NA,brown,midnight,lightorange,Exactly one player hit none of his shots,none-none-all,none-none-all,28,1,4114,NA
9,NA,purple,darkorange,lightblue,We have a clear loser,none-none-half,half-none-none,1,5,8529,NA
9,NA,lightorange,midnight,pink,Most of the players made shots,all-all-all,all-all-all,0,4,9946,NA
9,NA,brown,seafoam,pink,Player C made no shots,none-none-all,none-none-all,3,1,3749,NA
9,NA,lightorange,midnight,darkorange,No player hit none of his shots,none-none-none,none-none-none,2,3,12378,NA
9,NA,lavender,yellow,pink,Every player hit all of his shots,none-none-all,none-none-all,5,1,3226,NA
9,NA,brown,tan,purple,Player A made no shots,none-none-half,half-none-none,4,1,3509,NA
9,NA,darkorange,midnight,purple,Player B made no shots,half-half-all,half-all-half,7,1,3242,NA
9,NA,grey,purple,royalblue,No player hit some of his shots,none-half-all,none-half-all,6,1,5868,NA
9,NA,midnight,lightblue,pink,Player B placed second,none-half-half,half-half-none,9,1,5443,NA
9,NA,grey,pink,brown,Player B tied with Player C,half-all-all,all-half-all,8,1,4354,NA
9,NA,yellow,lightorange,lightblue,Player A shot perfectly,none-none-none,none-none-none,11,1,3179,NA
9,NA,lavender,royalblue,lightblue,Exactly one player hit all of his shots,none-none-half,none-half-none,10,1,3895,NA
9,NA,pink,royalblue,darkorange,We have a clear winner,half-half-all,half-all-half,13,7,3300,NA
9,NA,tan,yellow,purple,Player A tied with Player C,none-none-none,none-none-none,12,7,6072,NA
9,NA,tan,yellow,lightorange,Someone did better than Player C,none-none-none,none-none-none,15,1,4365,NA
9,NA,seafoam,purple,wheat,All the players are tied,half-half-half,half-half-half,14,7,3375,NA
9,NA,royalblue,brown,seafoam,Player A placed second,none-half-half,none-half-half,17,7,10370,NA
9,NA,midnight,royalblue,grey,Every player hit some of his shots,half-all-all,all-half-all,16,7,3783,NA
9,NA,lightblue,lavender,yellow,Someone did better than Player B,half-half-all,all-half-half,19,7,4716,NA
9,NA,yellow,midnight,lavender,Someone did better than Player A,half-all-all,all-half-all,18,1,6511,NA
9,NA,yellow,seafoam,grey,Player A was the star player of the round,most-none-all,most-none-all,-1,1,11514,yes
9,NA,wheat,lavender,seafoam,Player A made none of his baskets,all-none-few,all-none-few,-3,1,12477,yes
9,NA,lightblue,seafoam,darkorange,Player C messed up,all-all-none,all-all-none,-2,7,7795,yes
10,NA,pink,lavender,lightblue,Someone did better than Player A,none-half-all,none-all-half,24,7,3142,NA
10,NA,brown,darkorange,lightblue,We have a clear winner,half-half-all,half-all-half,25,7,2786,NA
10,NA,yellow,brown,grey,We have a clear loser,none-none-none,none-none-none,26,1,3552,NA
10,NA,wheat,purple,darkorange,No player hit all of his shots,none-none-none,none-none-none,27,7,3085,NA
10,NA,royalblue,pink,purple,Exactly one player hit some of his shots,none-half-all,all-half-none,20,1,4794,NA
10,NA,midnight,pink,lightblue,Player C made no shots,all-all-all,all-all-all,21,1,3083,NA
10,NA,purple,darkorange,seafoam,All the players are tied,none-half-all,all-none-half,22,1,3061,NA
10,NA,yellow,lavender,darkorange,Exactly one player hit none of his shots,none-none-half,none-half-none,23,1,3443,NA
10,NA,grey,midnight,lavender,Most of the players made shots,half-all-all,all-all-half,28,3,3570,NA
10,NA,lavender,purple,brown,Every player hit some of his shots,all-all-all,all-all-all,1,5,5327,NA
10,NA,lightorange,tan,royalblue,Player A shot perfectly,half-all-all,all-half-all,0,7,4412,NA
10,NA,pink,wheat,royalblue,Player A tied with Player B,half-all-all,all-half-all,3,1,4057,NA
10,NA,tan,brown,grey,Player C placed second,none-all-all,all-none-all,2,2,5395,NA
10,NA,purple,tan,lavender,Player B placed second,none-all-all,none-all-all,5,3,3536,NA
10,NA,seafoam,grey,lightorange,Player B made no shots,none-none-none,none-none-none,4,7,2769,NA
10,NA,lightorange,yellow,grey,Every player hit all of his shots,none-none-half,half-none-none,7,1,3275,NA
10,NA,seafoam,yellow,royalblue,Player B tied with Player C,none-half-all,all-none-half,6,1,2890,NA
10,NA,brown,pink,seafoam,No player hit some of his shots,none-none-all,none-none-all,9,4,4598,NA
10,NA,seafoam,tan,lavender,Someone did better than Player B,none-half-half,half-none-half,8,7,3635,NA
10,NA,lightblue,midnight,purple,Player B shot perfectly,none-none-all,none-none-all,11,1,2080,NA
10,NA,lightorange,pink,purple,Player A made no shots,half-half-all,half-all-half,10,1,2969,NA
10,NA,purple,yellow,seafoam,Player A placed second,half-half-half,half-half-half,13,1,3563,NA
10,NA,wheat,grey,royalblue,Every player hit none of his shots,half-all-all,all-all-half,12,1,3395,NA
10,NA,lightblue,grey,tan,Player C shot perfectly,half-half-all,all-half-half,15,1,2212,NA
10,NA,brown,yellow,purple,Player A tied with Player C,none-half-all,none-all-half,14,1,2969,NA
10,NA,seafoam,midnight,grey,Most of the players missed shots,none-half-all,all-none-half,17,5,5744,NA
10,NA,purple,tan,lightblue,No player hit none of his shots,half-half-all,half-all-half,16,5,7903,NA
10,NA,royalblue,lightorange,lavender,Exactly one player hit all of his shots,none-none-none,none-none-none,19,1,2630,NA
10,NA,lightblue,pink,purple,Someone did better than Player C,none-all-all,none-all-all,18,1,3802,NA
10,NA,royalblue,pink,lavender,Player A was the star player of the round,most-none-all,most-none-all,-1,1,7284,yes
10,NA,lightblue,royalblue,seafoam,Player A made none of his baskets,all-none-few,all-none-few,-3,1,10861,yes
10,NA,yellow,brown,tan,Player C messed up,all-all-none,all-all-none,-2,7,12186,no
11,NA,lightorange,midnight,tan,Player C made no shots,none-half-all,all-none-half,24,1,3811,NA
11,NA,grey,lightblue,midnight,Player A tied with Player C,none-none-all,none-all-none,25,5,4474,NA
11,NA,yellow,midnight,lightblue,Someone did better than Player B,all-all-all,all-all-all,26,2,7236,NA
11,NA,midnight,darkorange,yellow,All the players are tied,none-none-half,half-none-none,27,1,3666,NA
11,NA,midnight,yellow,pink,Player A placed second,none-none-all,none-all-none,20,5,6725,NA
11,NA,wheat,grey,darkorange,Every player hit some of his shots,half-all-all,half-all-all,21,6,5287,NA
11,NA,lightblue,brown,purple,Player A shot perfectly,none-half-half,none-half-half,22,1,4583,NA
11,NA,midnight,brown,wheat,Player C placed second,half-all-all,half-all-all,23,3,10915,NA
11,NA,pink,brown,yellow,Every player hit none of his shots,none-none-all,none-none-all,28,1,4117,NA
11,NA,yellow,lightblue,royalblue,We have a clear loser,none-none-all,none-all-none,1,2,7044,NA
11,NA,darkorange,royalblue,yellow,Player B shot perfectly,half-all-all,all-half-all,0,1,4287,NA
11,NA,brown,royalblue,wheat,We have a clear winner,half-half-half,half-half-half,3,1,3762,NA
11,NA,yellow,darkorange,lavender,Exactly one player hit all of his shots,none-none-none,none-none-none,2,1,5889,NA
11,NA,wheat,brown,lavender,Player B placed second,none-half-half,half-half-none,5,4,6035,NA
11,NA,seafoam,midnight,darkorange,Exactly one player hit some of his shots,none-none-none,none-none-none,4,1,4535,NA
11,NA,purple,darkorange,lightblue,Exactly one player hit none of his shots,half-all-all,half-all-all,7,1,5777,NA
11,NA,yellow,tan,purple,Player A made no shots,none-all-all,all-none-all,6,1,4784,NA
11,NA,grey,wheat,yellow,Every player hit all of his shots,none-all-all,all-none-all,9,1,3604,NA
11,NA,pink,brown,lightblue,Player A tied with Player B,half-half-half,half-half-half,8,6,5202,NA
11,NA,midnight,brown,tan,No player hit some of his shots,half-half-all,all-half-half,11,2,10050,NA
11,NA,darkorange,seafoam,wheat,Most of the players made shots,none-half-half,half-half-none,10,6,7757,NA
11,NA,tan,midnight,pink,Most of the players missed shots,none-half-all,half-none-all,13,5,6318,NA
11,NA,midnight,royalblue,grey,Player B made no shots,none-none-all,none-none-all,12,7,6299,NA
11,NA,darkorange,royalblue,yellow,No player hit all of his shots,none-none-none,none-none-none,15,7,6234,NA
11,NA,lavender,tan,pink,Someone did better than Player A,none-none-none,none-none-none,14,2,6760,NA
11,NA,royalblue,lavender,brown,Someone did better than Player C,none-half-all,all-half-none,17,6,4225,NA
11,NA,midnight,darkorange,brown,No player hit none of his shots,none-none-half,half-none-none,16,2,8528,NA
11,NA,lightblue,seafoam,purple,Player B tied with Player C,half-half-half,half-half-half,19,5,4755,NA
11,NA,brown,midnight,wheat,Player C shot perfectly,half-all-all,half-all-all,18,7,3632,NA
11,NA,yellow,pink,seafoam,Player A was the star player of the round,most-none-all,most-none-all,-1,2,9220,yes
11,NA,grey,royalblue,lightorange,Player A made none of his baskets,all-none-few,all-none-few,-3,1,11485,yes
11,NA,grey,brown,purple,Player C messed up,all-all-none,all-all-none,-2,7,6799,yes
12,NA,lavender,wheat,midnight,Exactly one player hit some of his shots,half-half-half,half-half-half,24,1,5200,NA
12,NA,lightorange,midnight,lavender,We have a clear loser,none-half-all,all-none-half,25,7,4281,NA
12,NA,wheat,lightblue,grey,Player A shot perfectly,all-all-all,all-all-all,26,7,4131,NA
12,NA,midnight,seafoam,lavender,Exactly one player hit none of his shots,none-half-half,none-half-half,27,7,7562,NA
12,NA,wheat,seafoam,lavender,Player B tied with Player C,half-all-all,half-all-all,20,7,5194,NA
12,NA,grey,midnight,lightorange,Someone did better than Player C,none-half-half,half-half-none,21,7,4814,NA
12,NA,yellow,tan,brown,Someone did better than Player B,none-half-half,none-half-half,22,1,5897,NA
12,NA,royalblue,wheat,yellow,No player hit some of his shots,none-half-half,none-half-half,23,1,7418,NA
12,NA,purple,grey,darkorange,Player A tied with Player C,half-all-all,all-all-half,28,1,9473,NA
12,NA,tan,yellow,brown,Every player hit none of his shots,none-none-all,none-none-all,1,2,9929,NA
12,NA,tan,lavender,seafoam,Player A made no shots,half-half-half,half-half-half,0,2,12915,NA
12,NA,pink,lavender,royalblue,No player hit all of his shots,half-half-all,all-half-half,3,2,10863,NA
12,NA,grey,lightorange,brown,Player C shot perfectly,none-half-half,none-half-half,2,1,7673,NA
12,NA,lavender,purple,lightorange,No player hit none of his shots,none-half-half,half-half-none,5,2,10536,NA
12,NA,lightblue,purple,midnight,Player C made no shots,none-none-all,none-none-all,4,1,8653,NA
12,NA,lightblue,darkorange,midnight,Most of the players made shots,half-half-all,all-half-half,7,6,7825,NA
12,NA,darkorange,lavender,lightblue,Every player hit some of his shots,half-half-half,half-half-half,6,7,7554,NA
12,NA,yellow,lavender,darkorange,We have a clear winner,none-half-half,half-half-none,9,2,12915,NA
12,NA,royalblue,grey,midnight,Player A tied with Player B,none-none-all,all-none-none,8,1,7017,NA
12,NA,tan,purple,midnight,Player B placed second,none-half-all,none-all-half,11,2,8150,NA
12,NA,yellow,lightblue,seafoam,Player C placed second,half-half-all,all-half-half,10,5,12697,NA
12,NA,grey,lightorange,seafoam,All the players are tied,all-all-all,all-all-all,13,7,6306,NA
12,NA,lightblue,lavender,yellow,Player B made no shots,half-half-all,half-half-all,12,1,5408,NA
12,NA,lavender,grey,midnight,Player A placed second,none-none-none,none-none-none,15,2,8802,NA
12,NA,midnight,tan,brown,Most of the players missed shots,none-none-all,none-none-all,14,6,8776,NA
12,NA,midnight,lavender,tan,Exactly one player hit all of his shots,half-half-half,half-half-half,17,1,9689,NA
12,NA,wheat,grey,tan,Someone did better than Player A,none-none-half,none-half-none,16,7,9627,NA
12,NA,lightblue,lavender,midnight,Every player hit all of his shots,half-all-all,all-half-all,19,2,8450,NA
12,NA,royalblue,lavender,seafoam,Player B shot perfectly,none-none-all,none-none-all,18,1,4779,NA
12,NA,midnight,yellow,brown,Player A was the star player of the round,most-none-all,most-none-all,-1,1,20422,yes
12,NA,lightorange,grey,purple,Player A made none of his baskets,all-none-few,all-none-few,-3,1,19000,yes
12,NA,yellow,wheat,darkorange,Player C messed up,all-all-none,all-all-none,-2,7,9598,yes
13,NA,brown,darkorange,royalblue,Player B placed second,none-all-all,all-all-none,24,6,5745,NA
13,NA,midnight,brown,wheat,Someone did better than Player B,half-half-all,all-half-half,25,7,4069,NA
13,NA,lavender,wheat,brown,Player C shot perfectly,none-none-half,half-none-none,26,1,4445,NA
13,NA,purple,lavender,darkorange,Exactly one player hit all of his shots,all-all-all,all-all-all,27,1,5628,NA
13,NA,grey,tan,royalblue,Player C placed second,all-all-all,all-all-all,20,6,4722,NA
13,NA,lightorange,royalblue,purple,Every player hit none of his shots,none-none-half,half-none-none,21,1,5319,NA
13,NA,grey,seafoam,lightorange,No player hit none of his shots,half-half-half,half-half-half,22,5,11627,NA
13,NA,lightblue,brown,midnight,Player B tied with Player C,none-none-half,none-none-half,23,1,4832,NA
13,NA,lightblue,tan,lavender,Someone did better than Player A,none-none-all,none-all-none,28,6,4015,NA
13,NA,grey,pink,yellow,Player A tied with Player B,half-half-all,half-half-all,1,7,6839,NA
13,NA,lightblue,pink,lavender,Most of the players made shots,half-half-half,half-half-half,0,5,7338,NA
13,NA,lightorange,wheat,tan,Player A placed second,none-none-half,half-none-none,3,1,9336,NA
13,NA,wheat,royalblue,grey,Every player hit all of his shots,none-half-half,none-half-half,2,1,5881,NA
13,NA,midnight,wheat,grey,Exactly one player hit some of his shots,none-none-all,all-none-none,5,6,7048,NA
13,NA,pink,brown,seafoam,Most of the players missed shots,half-all-all,half-all-all,4,2,6552,NA
13,NA,purple,yellow,darkorange,No player hit all of his shots,half-all-all,half-all-all,7,1,5336,NA
13,NA,royalblue,grey,brown,Player A tied with Player C,none-none-none,none-none-none,6,6,8244,NA
13,NA,lavender,lightblue,wheat,Player C made no shots,none-none-all,all-none-none,9,7,3981,NA
13,NA,royalblue,pink,lightorange,Exactly one player hit none of his shots,none-half-all,all-none-half,8,7,4360,NA
13,NA,wheat,tan,yellow,Someone did better than Player C,half-half-half,half-half-half,11,2,5729,NA
13,NA,wheat,lavender,midnight,We have a clear winner,half-half-all,all-half-half,10,7,4740,NA
13,NA,lightorange,midnight,tan,Every player hit some of his shots,none-half-all,half-all-none,13,1,5674,NA
13,NA,grey,purple,wheat,We have a clear loser,all-all-all,all-all-all,12,1,4477,NA
13,NA,purple,grey,seafoam,Player B shot perfectly,none-half-all,all-half-none,15,1,5348,NA
13,NA,purple,midnight,grey,Player A made no shots,all-all-all,all-all-all,14,1,5505,NA
13,NA,darkorange,brown,grey,Player B made no shots,half-half-all,all-half-half,17,1,5830,NA
13,NA,grey,lightblue,brown,All the players are tied,none-all-all,none-all-all,16,2,4907,NA
13,NA,lightorange,pink,darkorange,Player A shot perfectly,half-all-all,all-all-half,19,7,4490,NA
13,NA,midnight,royalblue,lightblue,No player hit some of his shots,none-half-all,half-none-all,18,1,6672,NA
13,NA,midnight,royalblue,lightblue,Player A was the star player of the round,most-none-all,most-none-all,-1,1,10165,yes
13,NA,midnight,tan,royalblue,Player A made none of his baskets,all-none-few,all-none-few,-3,1,18530,yes
13,NA,pink,tan,brown,Player C messed up,all-all-none,all-all-none,-2,7,7203,yes
14,English,seafoam,grey,midnight,Most of the players made shots,none-none-half,half-none-none,24,1,3966,NA
14,English,midnight,wheat,lightorange,We have a clear loser,half-half-all,all-half-half,25,2,5519,NA
14,English,darkorange,purple,lightblue,Player C placed second,half-half-half,half-half-half,26,1,4470,NA
14,English,royalblue,wheat,tan,Someone did better than Player C,none-none-none,none-none-none,27,1,3654,NA
14,English,wheat,grey,pink,No player hit none of his shots,all-all-all,all-all-all,20,5,19654,NA
14,English,tan,lightblue,yellow,Player A tied with Player C,none-half-half,half-none-half,21,7,7670,NA
14,English,grey,lightorange,royalblue,Player A shot perfectly,none-half-all,half-all-none,22,1,4766,NA
14,English,darkorange,midnight,lavender,Every player hit some of his shots,half-half-all,half-half-all,23,7,5270,NA
14,English,brown,seafoam,lightorange,All the players are tied,none-all-all,none-all-all,28,1,3182,NA
14,English,purple,pink,wheat,Player B placed second,half-all-all,half-all-all,1,3,17957,NA
14,English,royalblue,lightblue,yellow,Exactly one player hit some of his shots,half-half-half,half-half-half,0,1,9232,NA
14,English,lightorange,lavender,yellow,Player A placed second,none-none-all,none-all-none,3,3,8222,NA
14,English,purple,pink,lavender,Player B shot perfectly,none-none-half,none-none-half,2,1,5438,NA
14,English,lightorange,yellow,seafoam,Every player hit none of his shots,half-half-all,all-half-half,5,1,5773,NA
14,English,midnight,yellow,brown,Player A made no shots,none-half-half,half-none-half,4,1,3845,NA
14,English,brown,royalblue,pink,No player hit some of his shots,none-half-half,none-half-half,7,1,10270,NA
14,English,yellow,lightorange,seafoam,Someone did better than Player B,none-half-all,none-all-half,6,1,6591,NA
14,English,purple,darkorange,tan,Exactly one player hit none of his shots,none-none-all,none-none-all,9,1,6742,NA
14,English,midnight,lightblue,royalblue,Exactly one player hit all of his shots,half-half-half,half-half-half,8,1,5758,NA
14,English,royalblue,yellow,seafoam,Player B made no shots,half-half-all,half-half-all,11,1,3958,NA
14,English,lavender,royalblue,lightorange,Someone did better than Player A,all-all-all,all-all-all,10,1,8015,NA
14,English,lightblue,royalblue,yellow,We have a clear winner,all-all-all,all-all-all,13,1,4711,NA
14,English,brown,lightorange,yellow,Player C shot perfectly,none-half-half,half-half-none,12,1,4349,NA
14,English,wheat,pink,lightblue,Every player hit all of his shots,none-half-all,none-half-all,15,1,4270,NA
14,English,lavender,brown,royalblue,Player A tied with Player B,none-half-all,half-all-none,14,1,5031,NA
14,English,grey,lightorange,darkorange,Most of the players missed shots,half-half-all,half-all-half,17,6,7079,NA
14,English,lightorange,royalblue,wheat,No player hit all of his shots,half-half-all,half-half-all,16,1,5446,NA
14,English,wheat,yellow,tan,Player B tied with Player C,none-all-all,none-all-all,19,7,5093,NA
14,English,wheat,brown,darkorange,Player C made no shots,half-half-half,half-half-half,18,1,3550,NA
14,English,lavender,lightblue,yellow,Player A was the star player of the round,most-none-all,most-none-all,-1,1,13142,yes
14,English,brown,lavender,pink,Player A made none of his baskets,all-none-few,all-none-few,-3,1,16524,yes
14,English,royalblue,lightorange,grey,Player C messed up,all-all-none,all-all-none,-2,7,8635,yes
15,English,brown,pink,purple,No player hit all of his shots,none-half-half,none-half-half,24,7,5479,NA
15,English,lavender,purple,brown,Player A placed second,none-none-all,none-all-none,25,5,4239,NA
15,English,lightblue,lavender,seafoam,Player C made no shots,none-half-all,none-all-half,26,1,5151,NA
15,English,midnight,wheat,grey,Player C placed second,none-none-none,none-none-none,27,1,3614,NA
15,English,lightblue,royalblue,grey,We have a clear loser,half-half-all,all-half-half,20,1,3368,NA
15,English,purple,pink,seafoam,Player A tied with Player C,half-half-all,all-half-half,21,1,2477,NA
15,English,wheat,royalblue,yellow,Someone did better than Player C,none-none-all,none-all-none,22,7,3720,NA
15,English,royalblue,seafoam,tan,Player B placed second,half-all-all,half-all-all,23,1,4606,NA
15,English,pink,seafoam,purple,Player A tied with Player B,half-half-half,half-half-half,28,7,6167,NA
15,English,wheat,royalblue,lightblue,Player B tied with Player C,none-all-all,none-all-all,1,7,6245,NA
15,English,midnight,grey,darkorange,Every player hit some of his shots,all-all-all,all-all-all,0,7,5785,NA
15,English,tan,yellow,purple,Most of the players made shots,half-half-all,half-all-half,3,7,9814,NA
15,English,midnight,purple,darkorange,Exactly one player hit some of his shots,none-none-none,none-none-none,2,1,6142,NA
15,English,lavender,wheat,yellow,Exactly one player hit all of his shots,none-half-half,half-none-half,5,1,7118,NA
15,English,tan,lavender,pink,Every player hit all of his shots,none-none-half,none-none-half,4,1,5479,NA
15,English,grey,purple,midnight,No player hit some of his shots,none-none-half,none-half-none,7,1,6614,NA
15,English,brown,seafoam,darkorange,Someone did better than Player B,none-none-all,all-none-none,6,7,5063,NA
15,English,tan,lightorange,seafoam,Player A shot perfectly,none-none-half,half-none-none,9,1,1975,NA
15,English,lightblue,yellow,brown,Player A made no shots,half-half-all,half-half-all,8,1,4239,NA
15,English,royalblue,lightorange,lavender,Every player hit none of his shots,none-none-all,none-all-none,11,1,2959,NA
15,English,lightblue,wheat,royalblue,We have a clear winner,half-half-half,half-half-half,10,1,2182,NA
15,English,pink,lavender,grey,Most of the players missed shots,half-half-half,half-half-half,13,1,2846,NA
15,English,lavender,tan,wheat,Exactly one player hit none of his shots,all-all-all,all-all-all,12,1,2871,NA
15,English,lightblue,brown,pink,Player B made no shots,none-half-half,half-half-none,15,1,4510,NA
15,English,wheat,tan,lightblue,No player hit none of his shots,half-half-all,half-all-half,14,1,4224,NA
15,English,lightorange,wheat,yellow,All the players are tied,none-half-half,none-half-half,17,1,3382,NA
15,English,midnight,seafoam,grey,Player C shot perfectly,all-all-all,all-all-all,16,7,2758,NA
15,English,pink,tan,lavender,Player B shot perfectly,half-all-all,half-all-all,19,7,2079,NA
15,English,royalblue,wheat,darkorange,Someone did better than Player A,none-none-none,none-none-none,18,1,1807,NA
15,English,lightblue,pink,wheat,Player A was the star player of the round,most-none-all,most-none-all,-1,1,23574,yes
15,English,pink,brown,darkorange,Player A made none of his baskets,all-none-few,all-none-few,-3,1,14837,yes
15,English,wheat,tan,seafoam,Player C messed up,all-all-none,all-all-none,-2,7,5940,yes
16,NA,tan,lavender,grey,Player A placed second,half-all-all,half-all-all,24,1,3826,NA
16,NA,midnight,royalblue,brown,Player B shot perfectly,all-all-all,all-all-all,25,7,3586,NA
16,NA,purple,pink,tan,No player hit all of his shots,none-half-all,all-half-none,26,1,3040,NA
16,NA,darkorange,seafoam,wheat,Most of the players missed shots,none-half-half,half-half-none,27,6,9359,NA
16,NA,grey,midnight,brown,All the players are tied,none-none-half,half-none-none,20,1,3500,NA
16,NA,lightorange,grey,darkorange,Player B placed second,none-half-all,all-none-half,21,1,2724,NA
16,NA,lavender,wheat,darkorange,We have a clear loser,none-half-all,half-none-all,22,7,2937,NA
16,NA,grey,lavender,yellow,Player C placed second,none-all-all,none-all-all,23,3,3967,NA
16,NA,seafoam,brown,grey,No player hit none of his shots,none-none-all,all-none-none,28,1,3301,NA
16,NA,seafoam,wheat,royalblue,Player B made no shots,none-none-none,none-none-none,1,7,3926,NA
16,NA,darkorange,purple,lightblue,We have a clear winner,none-none-none,none-none-none,0,1,6033,NA
16,NA,royalblue,purple,lightblue,Player A tied with Player C,none-none-all,none-none-all,3,1,5590,NA
16,NA,tan,brown,lavender,Player C shot perfectly,half-half-half,half-half-half,2,1,3885,NA
16,NA,brown,pink,lightblue,Player B tied with Player C,none-none-half,half-none-none,5,7,3195,NA
16,NA,grey,darkorange,purple,Every player hit none of his shots,none-half-half,half-none-half,4,1,5114,NA
16,NA,grey,darkorange,seafoam,No player hit some of his shots,none-all-all,all-none-all,7,7,8515,NA
16,NA,darkorange,lavender,midnight,Player A shot perfectly,none-none-none,none-none-none,6,1,4633,NA
16,NA,midnight,wheat,tan,Player C made no shots,all-all-all,all-all-all,9,1,4271,NA
16,NA,yellow,darkorange,seafoam,Someone did better than Player C,none-none-none,none-none-none,8,1,4313,NA
16,NA,brown,pink,midnight,Every player hit all of his shots,half-all-all,all-all-half,11,1,3169,NA
16,NA,lightblue,purple,grey,Someone did better than Player A,none-half-half,half-half-none,10,1,6306,NA
16,NA,brown,royalblue,grey,Most of the players made shots,all-all-all,all-all-all,13,4,6592,NA
16,NA,midnight,wheat,lightblue,Exactly one player hit none of his shots,none-none-half,none-half-none,12,1,3217,NA
16,NA,grey,midnight,lightblue,Someone did better than Player B,all-all-all,all-all-all,15,1,4285,NA
16,NA,royalblue,midnight,brown,Player A tied with Player B,none-half-half,half-none-half,14,1,5085,NA
16,NA,darkorange,lavender,pink,Exactly one player hit some of his shots,none-half-half,half-none-half,17,1,3696,NA
16,NA,pink,wheat,lightorange,Every player hit some of his shots,none-all-all,none-all-all,16,1,3134,NA
16,NA,midnight,purple,lavender,Exactly one player hit all of his shots,none-half-all,none-half-all,19,7,6555,NA
16,NA,grey,lavender,brown,Player A made no shots,half-half-half,half-half-half,18,1,3185,NA
16,NA,lightorange,pink,purple,Player A was the star player of the round,most-none-all,most-none-all,-1,2,8218,yes
16,NA,tan,grey,brown,Player A made none of his baskets,all-none-few,all-none-few,-3,1,10098,yes
16,NA,royalblue,yellow,grey,Player C messed up,all-all-none,all-all-none,-2,7,5284,yes
17,NA,wheat,lightblue,brown,Player A placed second,none-half-all,half-all-none,24,7,6281,NA
17,NA,pink,lavender,grey,Player B shot perfectly,none-all-all,all-all-none,25,7,3502,NA
17,NA,brown,lavender,darkorange,Player B tied with Player C,none-half-all,all-half-none,26,1,5829,NA
17,NA,lavender,grey,tan,Player C made no shots,none-none-none,none-none-none,27,7,4902,NA
17,NA,seafoam,grey,lightblue,Someone did better than Player C,half-half-all,all-half-half,20,7,7240,NA
17,NA,darkorange,royalblue,brown,Every player hit some of his shots,none-half-half,half-none-half,21,1,3703,NA
17,NA,darkorange,lightorange,midnight,No player hit all of his shots,half-half-all,all-half-half,22,1,3832,NA
17,NA,lightblue,grey,seafoam,Someone did better than Player B,half-half-half,half-half-half,23,1,5919,NA
17,NA,royalblue,tan,lightorange,Every player hit all of his shots,none-half-half,none-half-half,28,1,3993,NA
17,NA,wheat,tan,brown,Exactly one player hit some of his shots,half-half-half,half-half-half,1,1,6190,NA
17,NA,brown,wheat,yellow,Every player hit none of his shots,none-all-all,none-all-all,0,1,7544,NA
17,NA,midnight,brown,purple,Player A made no shots,none-none-none,none-none-none,3,7,6350,NA
17,NA,seafoam,pink,wheat,Most of the players made shots,none-half-all,none-half-all,2,1,5838,NA
17,NA,lavender,grey,lightblue,Player C placed second,none-none-none,none-none-none,5,1,7790,NA
17,NA,lightblue,seafoam,royalblue,Player B made no shots,none-half-all,none-all-half,4,1,4521,NA
17,NA,darkorange,lavender,seafoam,We have a clear loser,none-half-all,none-all-half,7,7,7597,NA
17,NA,purple,seafoam,royalblue,Player B placed second,none-half-half,none-half-half,6,4,10278,NA
17,NA,yellow,seafoam,brown,No player hit none of his shots,none-none-half,half-none-none,9,1,10392,NA
17,NA,lightblue,purple,lavender,Someone did better than Player A,half-half-all,half-half-all,8,7,8016,NA
17,NA,seafoam,darkorange,yellow,All the players are tied,none-half-all,half-none-all,11,1,3386,NA
17,NA,darkorange,royalblue,purple,Player A shot perfectly,half-all-all,all-all-half,10,7,3158,NA
17,NA,pink,lightblue,lavender,Exactly one player hit all of his shots,none-half-all,none-all-half,13,7,4871,NA
17,NA,pink,midnight,lightblue,Player A tied with Player C,none-all-all,none-all-all,12,1,6767,NA
17,NA,midnight,lightblue,grey,Player C shot perfectly,none-none-none,none-none-none,15,1,5453,NA
17,NA,yellow,brown,grey,No player hit some of his shots,none-none-all,all-none-none,14,1,10498,NA
17,NA,lightorange,wheat,royalblue,Exactly one player hit none of his shots,none-none-none,none-none-none,17,1,6207,NA
17,NA,midnight,lightblue,pink,Player A tied with Player B,none-half-half,none-half-half,16,1,5486,NA
17,NA,tan,lightorange,lavender,Most of the players missed shots,half-all-all,half-all-all,19,1,5343,NA
17,NA,pink,midnight,lightblue,We have a clear winner,half-half-half,half-half-half,18,1,5937,NA
17,NA,lightblue,midnight,royalblue,Player A was the star player of the round,most-none-all,most-none-all,-1,1,8653,yes
17,NA,lightblue,purple,brown,Player A made none of his baskets,all-none-few,all-none-few,-3,1,10063,yes
17,NA,tan,brown,lightorange,Player C messed up,all-all-none,all-all-none,-2,7,8485,yes
18,English,grey,lavender,seafoam,We have a clear loser,half-all-all,all-half-all,24,7,4574,NA
18,English,pink,midnight,lightorange,Player B tied with Player C,half-all-all,all-half-all,25,1,4447,NA
18,English,tan,darkorange,yellow,Player A made no shots,half-half-half,half-half-half,26,1,2701,NA
18,English,lightblue,pink,midnight,Player A shot perfectly,half-all-all,all-half-all,27,7,3437,NA
18,English,yellow,midnight,royalblue,Most of the players made shots,all-all-all,all-all-all,20,5,5887,NA
18,English,wheat,tan,pink,No player hit some of his shots,none-all-all,all-none-all,21,1,4285,NA
18,English,lightblue,brown,wheat,Player C placed second,half-all-all,half-all-all,22,1,2880,NA
18,English,lightblue,royalblue,purple,Player C shot perfectly,none-all-all,all-all-none,23,1,2059,NA
18,English,purple,lightblue,wheat,No player hit all of his shots,half-half-all,half-all-half,28,1,2726,NA
18,English,seafoam,pink,lightorange,Every player hit none of his shots,none-none-none,none-none-none,1,7,3001,NA
18,English,midnight,yellow,brown,Every player hit some of his shots,none-none-half,half-none-none,0,1,3741,NA
18,English,seafoam,yellow,purple,Exactly one player hit some of his shots,all-all-all,all-all-all,3,1,3981,NA
18,English,purple,lavender,lightblue,Player A tied with Player C,none-none-half,none-half-none,2,5,9420,NA
18,English,wheat,yellow,lightblue,No player hit none of his shots,half-half-all,half-all-half,5,7,3629,NA
18,English,tan,darkorange,purple,Most of the players missed shots,half-all-all,half-all-all,4,1,4366,NA
18,English,pink,royalblue,yellow,Player B made no shots,none-none-none,none-none-none,7,7,3781,NA
18,English,pink,purple,midnight,Player A tied with Player B,all-all-all,all-all-all,6,5,6256,NA
18,English,lavender,seafoam,midnight,Exactly one player hit all of his shots,half-all-all,half-all-all,9,1,2806,NA
18,English,purple,pink,lavender,Player B shot perfectly,none-half-all,all-none-half,8,1,4702,NA
18,English,wheat,seafoam,midnight,Someone did better than Player B,none-none-none,none-none-none,11,1,3460,NA
18,English,darkorange,grey,lavender,Player B placed second,half-half-all,half-all-half,10,1,4648,NA
18,English,lavender,tan,lightorange,We have a clear winner,half-all-all,half-all-all,13,1,2270,NA
18,English,lightblue,royalblue,lavender,Player A placed second,half-half-half,half-half-half,12,1,3711,NA
18,English,brown,grey,yellow,Someone did better than Player C,none-none-none,none-none-none,15,1,2359,NA
18,English,lightorange,grey,royalblue,Every player hit all of his shots,none-none-half,none-none-half,14,1,3253,NA
18,English,yellow,midnight,lightblue,Player C made no shots,half-half-all,half-half-all,17,1,3902,NA
18,English,brown,lightorange,wheat,Someone did better than Player A,all-all-all,all-all-all,16,1,2988,NA
18,English,lightblue,seafoam,pink,Exactly one player hit none of his shots,all-all-all,all-all-all,19,1,2870,NA
18,English,purple,royalblue,wheat,All the players are tied,none-none-half,none-half-none,18,1,3141,NA
18,English,lavender,seafoam,yellow,Player A was the star player of the round,most-none-all,most-none-all,-1,1,6230,yes
18,English,royalblue,wheat,brown,Player A made none of his baskets,all-none-few,all-none-few,-3,1,10461,yes
18,English,grey,lavender,lightblue,Player C messed up,all-all-none,all-all-none,-2,7,6197,yes
19,English,royalblue,wheat,brown,No player hit none of his shots,none-half-all,all-none-half,24,6,4756,NA
19,English,brown,royalblue,pink,Player B placed second,all-all-all,all-all-all,25,2,5598,NA
19,English,yellow,lightblue,midnight,Player A placed second,none-all-all,all-all-none,26,2,3020,NA
19,English,lightblue,midnight,purple,Exactly one player hit some of his shots,none-none-none,none-none-none,27,1,4685,NA
19,English,lightblue,pink,tan,Player B shot perfectly,half-half-half,half-half-half,20,2,3553,NA
19,English,tan,lightblue,midnight,Player A tied with Player B,none-all-all,all-all-none,21,7,3007,NA
19,English,lightblue,yellow,tan,Player B made no shots,none-half-half,half-none-half,22,7,2853,NA
19,English,seafoam,purple,pink,Player B tied with Player C,half-all-all,all-half-all,23,1,4795,NA
19,English,yellow,purple,royalblue,We have a clear winner,half-half-half,half-half-half,28,1,2422,NA
19,English,midnight,pink,darkorange,Player A made no shots,none-half-all,all-none-half,1,1,6652,NA
19,English,seafoam,lightorange,grey,Player A shot perfectly,none-half-all,half-none-all,0,1,4761,NA
19,English,lightblue,lavender,grey,Most of the players missed shots,none-none-none,none-none-none,3,5,3418,NA
19,English,lightorange,pink,seafoam,No player hit all of his shots,none-none-none,none-none-none,2,7,2801,NA
19,English,tan,wheat,darkorange,Someone did better than Player A,none-half-all,half-none-all,5,6,6260,NA
19,English,seafoam,royalblue,midnight,Every player hit none of his shots,none-half-all,half-none-all,4,1,4116,NA
19,English,yellow,royalblue,brown,We have a clear loser,half-half-all,half-all-half,7,5,3848,NA
19,English,wheat,yellow,tan,Player C shot perfectly,half-half-half,half-half-half,6,1,3698,NA
19,English,tan,darkorange,lavender,Every player hit some of his shots,none-half-all,none-all-half,9,2,4397,NA
19,English,purple,pink,yellow,Every player hit all of his shots,none-none-none,none-none-none,8,1,3876,NA
19,English,darkorange,seafoam,lavender,Player C made no shots,none-half-half,none-half-half,11,1,5346,NA
19,English,midnight,seafoam,tan,Someone did better than Player C,none-all-all,none-all-all,10,1,5425,NA
19,English,lavender,wheat,midnight,Player C placed second,none-all-all,all-all-none,13,1,5820,NA
19,English,pink,midnight,grey,Most of the players made shots,none-none-none,none-none-none,12,1,2522,NA
19,English,lavender,lightblue,grey,Exactly one player hit none of his shots,none-all-all,none-all-all,15,6,7955,NA
19,English,wheat,royalblue,grey,All the players are tied,none-all-all,all-all-none,14,1,2675,NA
19,English,brown,lightblue,darkorange,Player A tied with Player C,all-all-all,all-all-all,17,6,4171,NA
19,English,tan,lightblue,pink,Exactly one player hit all of his shots,none-half-all,none-all-half,16,6,4550,NA
19,English,midnight,royalblue,lightblue,No player hit some of his shots,none-all-all,all-all-none,19,5,5549,NA
19,English,brown,royalblue,pink,Someone did better than Player B,none-none-half,half-none-none,18,6,5114,NA
19,English,midnight,brown,seafoam,Player A was the star player of the round,most-none-all,most-none-all,-1,2,6664,yes
19,English,lightblue,lightorange,purple,Player A made none of his baskets,all-none-few,all-none-few,-3,2,9275,yes
19,English,tan,yellow,darkorange,Player C messed up,all-all-none,all-all-none,-2,7,15308,no
20,NA,purple,lightorange,brown,Exactly one player hit none of his shots,none-none-half,half-none-none,24,1,4775,NA
20,NA,wheat,lightblue,royalblue,Exactly one player hit all of his shots,none-all-all,none-all-all,25,1,4977,NA
20,NA,seafoam,tan,wheat,Player A tied with Player C,none-none-all,all-none-none,26,1,5788,NA
20,NA,midnight,purple,yellow,Player B shot perfectly,half-half-all,all-half-half,27,1,4114,NA
20,NA,darkorange,lavender,grey,Someone did better than Player C,half-half-half,half-half-half,20,1,4859,NA
20,NA,royalblue,seafoam,wheat,Player A shot perfectly,half-half-half,half-half-half,21,1,3827,NA
20,NA,pink,wheat,royalblue,Player A placed second,half-all-all,all-all-half,22,1,3709,NA
20,NA,darkorange,wheat,purple,Most of the players missed shots,none-half-half,half-half-none,23,7,4370,NA
20,NA,royalblue,brown,lavender,Player A tied with Player B,none-all-all,all-none-all,28,1,172222,NA
20,NA,lightblue,midnight,royalblue,Player C made no shots,half-half-all,half-half-all,1,1,3519,NA
20,NA,lightorange,tan,midnight,Every player hit all of his shots,half-half-all,half-half-all,0,1,4881,NA
20,NA,lightorange,seafoam,darkorange,Exactly one player hit some of his shots,half-all-all,half-all-all,3,7,5575,NA
20,NA,lightblue,darkorange,wheat,We have a clear loser,half-half-half,half-half-half,2,1,2933,NA
20,NA,pink,grey,tan,Player A made no shots,none-half-all,none-all-half,5,7,3718,NA
20,NA,yellow,seafoam,purple,Most of the players made shots,none-none-all,all-none-none,4,1,3013,NA
20,NA,midnight,lightblue,darkorange,Every player hit none of his shots,all-all-all,all-all-all,7,1,4614,NA
20,NA,tan,yellow,pink,Player B placed second,none-none-all,all-none-none,6,7,4622,NA
20,NA,tan,pink,lightblue,Someone did better than Player A,none-none-none,none-none-none,9,1,3178,NA
20,NA,seafoam,yellow,royalblue,Player C placed second,none-none-none,none-none-none,8,1,5461,NA
20,NA,seafoam,darkorange,midnight,We have a clear winner,none-half-all,half-none-all,11,7,3653,NA
20,NA,wheat,purple,darkorange,No player hit none of his shots,none-none-half,half-none-none,10,1,10312,NA
20,NA,lavender,pink,lightblue,Someone did better than Player B,none-none-half,none-none-half,13,7,3344,NA
20,NA,grey,purple,lavender,Player C shot perfectly,none-all-all,none-all-all,12,7,3203,NA
20,NA,seafoam,pink,lightblue,No player hit all of his shots,all-all-all,all-all-all,15,1,3101,NA
20,NA,wheat,darkorange,lavender,All the players are tied,half-half-all,half-all-half,14,1,2894,NA
20,NA,yellow,lavender,tan,Every player hit some of his shots,none-half-half,half-half-none,17,1,2525,NA
20,NA,midnight,tan,lightblue,Player B tied with Player C,none-none-all,none-all-none,16,1,6263,NA
20,NA,lightblue,tan,purple,No player hit some of his shots,none-none-none,none-none-none,19,7,4637,NA
20,NA,lightblue,purple,yellow,Player B made no shots,half-all-all,half-all-all,18,1,2643,NA
20,NA,midnight,royalblue,tan,Player A was the star player of the round,most-none-all,most-none-all,-1,1,7496,yes
20,NA,lightblue,midnight,darkorange,Player A made none of his baskets,all-none-few,all-none-few,-3,1,12905,yes
20,NA,lavender,brown,wheat,Player C messed up,all-all-none,all-all-none,-2,7,5385,yes
21,NA,brown,midnight,tan,Player C shot perfectly,half-all-all,half-all-all,24,7,5748,NA
21,NA,brown,pink,seafoam,Player A tied with Player B,none-none-all,none-all-none,25,1,7720,NA
21,NA,brown,pink,tan,Exactly one player hit some of his shots,half-half-half,half-half-half,26,1,5084,NA
21,NA,seafoam,pink,lightblue,Someone did better than Player B,half-half-half,half-half-half,27,1,5218,NA
21,NA,wheat,grey,yellow,All the players are tied,none-none-all,none-all-none,20,1,5970,NA
21,NA,brown,yellow,lightorange,Player B tied with Player C,half-half-all,all-half-half,21,7,8835,NA
21,NA,seafoam,lightorange,brown,Every player hit some of his shots,none-none-all,all-none-none,22,1,4936,NA
21,NA,lightblue,darkorange,royalblue,No player hit all of his shots,none-none-all,none-none-all,23,1,6009,NA
21,NA,grey,seafoam,yellow,Exactly one player hit all of his shots,all-all-all,all-all-all,28,1,4158,NA
21,NA,lightblue,purple,tan,Most of the players missed shots,none-half-all,none-all-half,1,6,13538,NA
21,NA,lavender,darkorange,pink,Player B shot perfectly,none-none-none,none-none-none,0,1,6752,NA
21,NA,pink,grey,brown,Player A placed second,half-half-all,all-half-half,3,1,7210,NA
21,NA,royalblue,tan,brown,Every player hit all of his shots,none-none-none,none-none-none,2,1,6901,NA
21,NA,tan,lightorange,midnight,Player A shot perfectly,none-none-all,all-none-none,5,7,5323,NA
21,NA,purple,lightorange,lightblue,Player A made no shots,none-all-all,all-all-none,4,1,6037,NA
21,NA,wheat,midnight,tan,Most of the players made shots,all-all-all,all-all-all,7,6,8187,NA
21,NA,lightblue,pink,yellow,Player A tied with Player C,none-half-all,all-half-none,6,1,7072,NA
21,NA,seafoam,wheat,grey,No player hit none of his shots,half-all-all,all-all-half,9,1,22682,NA
21,NA,lightorange,pink,brown,Someone did better than Player A,none-all-all,all-none-all,8,1,14107,NA
21,NA,lavender,royalblue,pink,Exactly one player hit none of his shots,all-all-all,all-all-all,11,1,9048,NA
21,NA,tan,pink,yellow,No player hit some of his shots,half-half-half,half-half-half,10,1,8006,NA
21,NA,tan,wheat,yellow,Player B placed second,none-all-all,all-all-none,13,1,10285,NA
21,NA,purple,lavender,wheat,Player C placed second,half-half-half,half-half-half,12,1,7618,NA
21,NA,lightblue,darkorange,seafoam,Every player hit none of his shots,none-all-all,all-none-all,15,1,8455,NA
21,NA,pink,midnight,brown,Player C made no shots,half-half-half,half-half-half,14,1,5483,NA
21,NA,lightorange,lightblue,lavender,Someone did better than Player C,none-none-none,none-none-none,17,1,6402,NA
21,NA,pink,tan,midnight,We have a clear loser,half-half-half,half-half-half,16,1,5061,NA
21,NA,royalblue,pink,yellow,Player B made no shots,none-half-all,half-all-none,19,1,4879,NA
21,NA,lavender,yellow,tan,We have a clear winner,none-all-all,all-none-all,18,1,11027,NA
21,NA,lavender,royalblue,tan,Player A was the star player of the round,most-none-all,most-none-all,-1,1,9896,yes
21,NA,darkorange,royalblue,lightorange,Player A made none of his baskets,all-none-few,all-none-few,-3,1,16322,yes
21,NA,tan,grey,lightblue,Player C messed up,all-all-none,all-all-none,-2,7,9910,yes
22,NA,darkorange,lightorange,pink,Player A placed second,none-none-none,none-none-none,24,1,4532,NA
22,NA,grey,tan,brown,Player C shot perfectly,none-half-all,none-all-half,25,1,6073,NA
22,NA,yellow,seafoam,lavender,Every player hit none of his shots,all-all-all,all-all-all,26,1,3776,NA
22,NA,brown,wheat,darkorange,Someone did better than Player C,none-none-none,none-none-none,27,1,5060,NA
22,NA,lightorange,tan,darkorange,No player hit some of his shots,half-half-all,all-half-half,20,1,11509,NA
22,NA,royalblue,wheat,seafoam,Player A tied with Player C,none-half-all,all-half-none,21,1,6005,NA
22,NA,pink,seafoam,lavender,We have a clear loser,half-all-all,all-half-all,22,7,7108,NA
22,NA,purple,grey,tan,Exactly one player hit none of his shots,none-half-half,half-none-half,23,7,8450,NA
22,NA,pink,brown,grey,Someone did better than Player B,half-half-all,half-half-all,28,6,6240,NA
22,NA,lavender,pink,wheat,Player A tied with Player B,none-none-none,none-none-none,1,4,10979,NA
22,NA,lavender,brown,grey,No player hit all of his shots,half-all-all,half-all-all,0,1,8560,NA
22,NA,brown,royalblue,seafoam,Every player hit all of his shots,none-half-all,all-none-half,3,1,7565,NA
22,NA,royalblue,pink,seafoam,Player A made no shots,none-half-half,half-none-half,2,1,9751,NA
22,NA,lavender,darkorange,royalblue,Player B made no shots,none-none-none,none-none-none,5,6,5175,NA
22,NA,yellow,royalblue,wheat,Exactly one player hit all of his shots,none-all-all,none-all-all,4,1,6446,NA
22,NA,lavender,brown,darkorange,Every player hit some of his shots,none-none-none,none-none-none,7,1,4718,NA
22,NA,pink,darkorange,brown,All the players are tied,none-none-all,none-all-none,6,1,5923,NA
22,NA,seafoam,wheat,lightorange,Most of the players made shots,half-half-half,half-half-half,9,6,9708,NA
22,NA,yellow,lightorange,lavender,Most of the players missed shots,all-all-all,all-all-all,8,1,4710,NA
22,NA,pink,yellow,brown,Player B placed second,none-half-all,half-none-all,11,1,5395,NA
22,NA,brown,royalblue,seafoam,Player B shot perfectly,none-none-all,none-none-all,10,1,3834,NA
22,NA,tan,seafoam,grey,Player B tied with Player C,none-none-half,half-none-none,13,7,9133,NA
22,NA,darkorange,royalblue,lightblue,We have a clear winner,all-all-all,all-all-all,12,1,5564,NA
22,NA,royalblue,lightblue,wheat,Player C made no shots,none-none-half,half-none-none,15,7,4855,NA
22,NA,purple,lavender,wheat,Player A shot perfectly,none-half-all,all-none-half,14,7,6069,NA
22,NA,wheat,pink,lightblue,No player hit none of his shots,none-all-all,all-all-none,17,1,6827,NA
22,NA,grey,pink,darkorange,Player C placed second,all-all-all,all-all-all,16,1,5201,NA
22,NA,lightorange,wheat,purple,Exactly one player hit some of his shots,none-none-none,none-none-none,19,1,5008,NA
22,NA,midnight,darkorange,tan,Someone did better than Player A,half-half-half,half-half-half,18,1,7999,NA
22,NA,purple,yellow,grey,Player A was the star player of the round,most-none-all,most-none-all,-1,1,13913,yes
22,NA,royalblue,pink,tan,Player A made none of his baskets,all-none-few,all-none-few,-3,1,15830,yes
22,NA,royalblue,lavender,wheat,Player C messed up,all-all-none,all-all-none,-2,7,15058,no
23,NA,wheat,darkorange,seafoam,Player C made no shots,half-all-all,all-all-half,24,7,4410,NA
23,NA,wheat,darkorange,royalblue,Most of the players missed shots,none-none-all,none-none-all,25,1,5004,NA
23,NA,pink,brown,lightorange,Player B shot perfectly,none-all-all,all-all-none,26,7,3225,NA
23,NA,seafoam,midnight,brown,We have a clear winner,none-half-all,half-all-none,27,7,3516,NA
23,NA,purple,tan,royalblue,No player hit none of his shots,half-half-half,half-half-half,20,1,4877,NA
23,NA,darkorange,tan,brown,Every player hit none of his shots,none-none-none,none-none-none,21,7,8131,NA
23,NA,royalblue,lavender,purple,Every player hit some of his shots,none-none-half,none-none-half,22,7,3299,NA
23,NA,purple,grey,yellow,Someone did better than Player C,none-all-all,all-all-none,23,1,3690,NA
23,NA,seafoam,midnight,yellow,Player B tied with Player C,half-half-all,half-all-half,28,7,3713,NA
23,NA,grey,royalblue,wheat,Player A tied with Player B,none-none-none,none-none-none,1,7,9269,NA
23,NA,pink,midnight,lightblue,Player B made no shots,none-all-all,all-all-none,0,1,5664,NA
23,NA,midnight,grey,royalblue,Exactly one player hit none of his shots,half-all-all,all-half-all,3,1,5221,NA
23,NA,grey,purple,pink,We have a clear loser,all-all-all,all-all-all,2,7,4871,NA
23,NA,tan,wheat,lightorange,No player hit all of his shots,none-none-none,none-none-none,5,7,4433,NA
23,NA,lightorange,pink,purple,Most of the players made shots,none-all-all,all-none-all,4,1,4334,NA
23,NA,tan,wheat,purple,No player hit some of his shots,none-none-none,none-none-none,7,1,3693,NA
23,NA,yellow,seafoam,royalblue,Player A made no shots,none-none-all,all-none-none,6,1,4075,NA
23,NA,lightorange,lavender,lightblue,Player C placed second,half-half-all,half-half-all,9,1,12325,NA
23,NA,tan,seafoam,lightorange,Exactly one player hit all of his shots,half-half-all,all-half-half,8,7,5963,NA
23,NA,pink,grey,seafoam,All the players are tied,half-half-half,half-half-half,11,1,5820,NA
23,NA,midnight,lavender,wheat,Exactly one player hit some of his shots,none-none-half,half-none-none,10,7,7652,NA
23,NA,royalblue,yellow,tan,Someone did better than Player A,none-half-all,half-none-all,13,1,4721,NA
23,NA,lightblue,midnight,lavender,Player B placed second,none-none-half,half-none-none,12,7,3946,NA
23,NA,midnight,lightorange,brown,Every player hit all of his shots,half-all-all,all-half-all,15,7,7138,NA
23,NA,tan,wheat,midnight,Player C shot perfectly,half-half-half,half-half-half,14,7,3798,NA
23,NA,midnight,lightblue,purple,Player A tied with Player C,half-half-all,all-half-half,17,7,3760,NA
23,NA,pink,lightorange,seafoam,Someone did better than Player B,all-all-all,all-all-all,16,1,4043,NA
23,NA,lightorange,tan,grey,Player A placed second,half-half-half,half-half-half,19,7,6155,NA
23,NA,purple,grey,yellow,Player A shot perfectly,none-all-all,all-all-none,18,7,4807,NA
23,NA,midnight,grey,seafoam,Player A was the star player of the round,most-none-all,most-none-all,-1,1,8242,yes
23,NA,brown,lightblue,purple,Player A made none of his baskets,all-none-few,all-none-few,-3,1,67536,no
23,NA,midnight,lightblue,royalblue,Player C messed up,all-all-none,all-all-none,-2,7,9807,yes
24,NA,brown,seafoam,purple,Exactly one player hit none of his shots,half-half-all,half-all-half,24,1,13030,NA
24,NA,purple,brown,tan,Exactly one player hit all of his shots,none-all-all,none-all-all,25,1,8237,NA
24,NA,tan,lightorange,lightblue,Someone did better than Player B,half-half-half,half-half-half,26,1,4695,NA
24,NA,purple,brown,seafoam,Player B placed second,none-none-half,half-none-none,27,6,4602,NA
24,NA,seafoam,yellow,darkorange,Exactly one player hit some of his shots,half-all-all,all-all-half,20,1,20046,NA
24,NA,grey,purple,tan,Player B shot perfectly,none-none-half,half-none-none,21,1,5195,NA
24,NA,wheat,darkorange,tan,Player C shot perfectly,all-all-all,all-all-all,22,7,3479,NA
24,NA,brown,royalblue,lightblue,Player B tied with Player C,none-half-half,half-none-half,23,1,4446,NA
24,NA,midnight,lightorange,lightblue,No player hit none of his shots,half-all-all,half-all-all,28,1,5289,NA
24,NA,wheat,darkorange,yellow,Every player hit all of his shots,half-all-all,all-all-half,1,2,5569,NA
24,NA,grey,purple,brown,Player A shot perfectly,none-none-all,none-none-all,0,1,4742,NA
24,NA,midnight,brown,lightblue,Player A made no shots,none-half-all,all-half-none,3,1,4712,NA
24,NA,grey,lavender,pink,Player B made no shots,none-half-all,none-half-all,2,2,4196,NA
24,NA,tan,yellow,royalblue,Player A tied with Player C,none-none-half,half-none-none,5,1,8222,NA
24,NA,royalblue,seafoam,yellow,Player C made no shots,none-none-half,none-half-none,4,7,4165,NA
24,NA,pink,seafoam,midnight,No player hit all of his shots,all-all-all,all-all-all,7,1,12494,NA
24,NA,royalblue,seafoam,purple,Player A placed second,half-half-all,all-half-half,6,1,31106,NA
24,NA,midnight,lavender,lightorange,Someone did better than Player A,none-half-all,none-half-all,9,7,4025,NA
24,NA,midnight,wheat,purple,Most of the players made shots,none-none-none,none-none-none,8,1,9766,NA
24,NA,yellow,tan,royalblue,Someone did better than Player C,none-half-all,half-all-none,11,6,6302,NA
24,NA,midnight,lightorange,seafoam,We have a clear winner,none-none-all,none-none-all,10,7,3011,NA
24,NA,purple,pink,lightorange,All the players are tied,none-none-half,half-none-none,13,1,5741,NA
24,NA,yellow,darkorange,seafoam,Every player hit some of his shots,half-half-all,half-all-half,12,6,3775,NA
24,NA,brown,royalblue,midnight,We have a clear loser,none-half-half,half-none-half,15,7,4493,NA
24,NA,pink,wheat,midnight,Most of the players missed shots,none-half-half,half-half-none,14,6,7395,NA
24,NA,lightblue,lightorange,darkorange,Every player hit none of his shots,none-none-half,half-none-none,17,1,5349,NA
24,NA,purple,lightblue,pink,Player A tied with Player B,none-half-half,half-half-none,16,7,4009,NA
24,NA,lavender,yellow,wheat,No player hit some of his shots,half-half-all,half-all-half,19,1,5008,NA
24,NA,lavender,grey,seafoam,Player C placed second,none-none-all,all-none-none,18,6,9017,NA
24,NA,purple,brown,tan,Player A was the star player of the round,most-none-all,most-none-all,-1,2,7801,yes
24,NA,purple,lavender,royalblue,Player A made none of his baskets,all-none-few,all-none-few,-3,1,8159,yes
24,NA,seafoam,brown,lightblue,Player C messed up,all-all-none,all-all-none,-2,7,6832,yes
25,NA,wheat,pink,seafoam,Every player hit none of his shots,none-none-half,none-half-none,24,1,5702,NA
25,NA,tan,wheat,lavender,Player A tied with Player C,none-none-none,none-none-none,25,7,2805,NA
25,NA,wheat,purple,royalblue,All the players are tied,none-all-all,all-none-all,26,1,2487,NA
25,NA,lightblue,lavender,midnight,Most of the players made shots,half-all-all,all-half-all,27,5,6085,NA
25,NA,seafoam,wheat,royalblue,Player C placed second,half-half-half,half-half-half,20,1,3238,NA
25,NA,lightorange,tan,yellow,Player C made no shots,half-all-all,all-all-half,21,1,2703,NA
25,NA,wheat,lightblue,lavender,Every player hit some of his shots,all-all-all,all-all-all,22,7,3183,NA
25,NA,yellow,wheat,brown,Player C shot perfectly,half-all-all,all-all-half,23,1,4544,NA
25,NA,royalblue,lavender,purple,Player A placed second,half-all-all,all-half-all,28,1,2830,NA
25,NA,darkorange,purple,seafoam,Someone did better than Player B,none-none-none,none-none-none,1,1,4013,NA
25,NA,lavender,midnight,tan,Someone did better than Player C,half-all-all,all-half-all,0,4,7482,NA
25,NA,yellow,lightorange,seafoam,Every player hit all of his shots,none-none-all,all-none-none,3,1,3765,NA
25,NA,lavender,lightblue,grey,Exactly one player hit all of his shots,half-half-all,half-all-half,2,7,4108,NA
25,NA,grey,lavender,lightblue,Player A shot perfectly,none-half-all,all-none-half,5,7,3103,NA
25,NA,lightorange,darkorange,pink,Player A tied with Player B,none-half-all,half-none-all,4,1,4997,NA
25,NA,wheat,tan,seafoam,No player hit all of his shots,half-half-all,all-half-half,7,1,4246,NA
25,NA,grey,purple,tan,Player B made no shots,all-all-all,all-all-all,6,1,3253,NA
25,NA,grey,seafoam,yellow,Most of the players missed shots,none-all-all,all-all-none,9,1,4098,NA
25,NA,wheat,brown,royalblue,Player B shot perfectly,none-none-none,none-none-none,8,1,3238,NA
25,NA,yellow,wheat,lightorange,Exactly one player hit some of his shots,none-half-half,half-half-none,11,1,4926,NA
25,NA,yellow,lightorange,tan,Player B placed second,half-half-all,all-half-half,10,1,8444,NA
25,NA,lightblue,brown,lightorange,No player hit some of his shots,half-all-all,half-all-all,13,1,4855,NA
25,NA,lightorange,brown,darkorange,We have a clear winner,all-all-all,all-all-all,12,1,2646,NA
25,NA,lightblue,grey,seafoam,Exactly one player hit none of his shots,none-half-all,all-half-none,15,7,5085,NA
25,NA,wheat,royalblue,yellow,No player hit none of his shots,half-half-half,half-half-half,14,5,6134,NA
25,NA,purple,pink,yellow,Player B tied with Player C,none-none-none,none-none-none,17,7,3734,NA
25,NA,wheat,tan,grey,Someone did better than Player A,none-none-all,none-all-none,16,7,4078,NA
25,NA,brown,lightblue,royalblue,We have a clear loser,none-none-all,none-all-none,19,1,3102,NA
25,NA,lightblue,royalblue,darkorange,Player A made no shots,none-all-all,none-all-all,18,7,2398,NA
25,NA,lavender,lightblue,midnight,Player A was the star player of the round,most-none-all,most-none-all,-1,1,7821,yes
25,NA,wheat,purple,yellow,Player A made none of his baskets,all-none-few,all-none-few,-3,1,26991,no
25,NA,purple,brown,royalblue,Player C messed up,all-all-none,all-all-none,-2,7,13855,no
26,NA,tan,wheat,yellow,Every player hit some of his shots,half-half-all,half-all-half,24,2,11984,NA
26,NA,grey,lightblue,purple,No player hit none of his shots,all-all-all,all-all-all,25,7,35961,NA
26,NA,seafoam,yellow,lightblue,Player C made no shots,none-none-all,none-all-none,26,6,11856,NA
26,NA,midnight,wheat,tan,Player A shot perfectly,none-none-none,none-none-none,27,1,8025,NA
26,NA,lavender,pink,seafoam,Player B placed second,none-none-half,none-none-half,20,3,19626,NA
26,NA,tan,purple,seafoam,Player C shot perfectly,none-half-half,half-half-none,21,1,9079,NA
26,NA,lightorange,midnight,seafoam,Exactly one player hit some of his shots,half-half-half,half-half-half,22,1,8443,NA
26,NA,midnight,wheat,purple,Every player hit all of his shots,half-half-all,half-all-half,23,1,6852,NA
26,NA,pink,royalblue,yellow,Most of the players made shots,none-half-half,half-half-none,28,3,10226,NA
26,NA,darkorange,grey,lightblue,Every player hit none of his shots,none-none-half,none-half-none,1,2,15114,NA
26,NA,purple,tan,seafoam,Most of the players missed shots,none-none-all,none-all-none,0,2,14687,NA
26,NA,brown,pink,lightblue,Player A made no shots,half-all-all,half-all-all,3,1,6479,NA
26,NA,wheat,yellow,darkorange,Player B made no shots,half-all-all,all-all-half,2,1,8368,NA
26,NA,tan,lightorange,wheat,Player B tied with Player C,none-none-all,all-none-none,5,7,9634,NA
26,NA,lightblue,brown,midnight,Exactly one player hit none of his shots,none-none-all,none-all-none,4,1,10058,NA
26,NA,seafoam,pink,wheat,Someone did better than Player A,all-all-all,all-all-all,7,1,11419,NA
26,NA,purple,yellow,grey,Player C placed second,none-none-all,none-all-none,6,3,31799,NA
26,NA,wheat,lightorange,midnight,All the players are tied,none-half-half,half-none-half,9,1,5581,NA
26,NA,grey,lightblue,royalblue,No player hit some of his shots,half-half-half,half-half-half,8,1,16322,NA
26,NA,lightorange,brown,midnight,Player A placed second,half-half-half,half-half-half,11,1,8551,NA
26,NA,lightblue,wheat,seafoam,We have a clear loser,half-half-half,half-half-half,10,1,6675,NA
26,NA,purple,lightorange,yellow,Player A tied with Player B,none-none-all,all-none-none,13,1,9729,NA
26,NA,wheat,grey,pink,Someone did better than Player B,none-none-half,none-half-none,12,1,8357,NA
26,NA,pink,lightblue,wheat,Player B shot perfectly,all-all-all,all-all-all,15,5,11958,NA
26,NA,tan,lightblue,yellow,We have a clear winner,none-none-none,none-none-none,14,1,6499,NA
26,NA,yellow,darkorange,lightblue,Someone did better than Player C,half-half-half,half-half-half,17,3,26334,NA
26,NA,royalblue,grey,lightblue,No player hit all of his shots,none-none-half,half-none-none,16,6,16910,NA
26,NA,seafoam,darkorange,royalblue,Player A tied with Player C,none-all-all,all-all-none,19,1,7125,NA
26,NA,royalblue,seafoam,lightorange,Exactly one player hit all of his shots,none-all-all,all-all-none,18,1,11432,NA
26,NA,lightorange,midnight,purple,Player A was the star player of the round,most-none-all,most-none-all,-1,1,13742,yes
26,NA,purple,darkorange,tan,Player A made none of his baskets,all-none-few,all-none-few,-3,1,34617,yes
26,NA,lightblue,wheat,darkorange,Player C messed up,all-all-none,all-all-none,-2,7,9849,yes
27,NA,grey,lightorange,royalblue,Every player hit none of his shots,half-all-all,half-all-all,24,1,4109,NA
27,NA,yellow,lavender,lightblue,Most of the players made shots,none-none-half,none-half-none,25,1,3151,NA
27,NA,brown,pink,midnight,Exactly one player hit some of his shots,none-half-half,half-none-half,26,1,5331,NA
27,NA,lavender,brown,darkorange,Most of the players missed shots,none-none-none,none-none-none,27,5,8250,NA
27,NA,royalblue,grey,tan,Player C made no shots,none-none-all,all-none-none,20,7,3064,NA
27,NA,lavender,midnight,brown,Player A made no shots,half-half-half,half-half-half,21,1,2338,NA
27,NA,lightorange,royalblue,wheat,We have a clear loser,half-all-all,all-all-half,22,7,2930,NA
27,NA,royalblue,seafoam,lavender,We have a clear winner,none-half-all,half-all-none,23,7,2868,NA
27,NA,tan,seafoam,yellow,Every player hit all of his shots,none-half-all,all-half-none,28,1,2891,NA
27,NA,purple,lightblue,brown,No player hit some of his shots,half-half-all,all-half-half,1,1,4382,NA
27,NA,lightorange,tan,brown,Player B shot perfectly,none-none-all,none-none-all,0,1,2742,NA
27,NA,brown,pink,lavender,Someone did better than Player A,none-half-half,half-none-half,3,1,6523,NA
27,NA,tan,yellow,seafoam,Exactly one player hit none of his shots,none-all-all,none-all-all,2,7,4442,NA
27,NA,lightblue,lightorange,wheat,Player A shot perfectly,none-none-none,none-none-none,5,1,1938,NA
27,NA,tan,brown,purple,Player B made no shots,half-half-half,half-half-half,4,1,2711,NA
27,NA,brown,wheat,grey,No player hit all of his shots,half-half-half,half-half-half,7,7,2996,NA
27,NA,grey,brown,pink,Player A placed second,half-all-all,all-all-half,6,3,10872,NA
27,NA,purple,lightblue,lightorange,Player A tied with Player B,none-half-half,half-half-none,9,7,4869,NA
27,NA,lightblue,pink,midnight,No player hit none of his shots,half-half-all,all-half-half,8,7,3240,NA
27,NA,pink,wheat,royalblue,Player A tied with Player C,none-all-all,all-none-all,11,7,2957,NA
27,NA,lavender,royalblue,purple,Player C shot perfectly,none-none-all,none-none-all,10,7,2226,NA
27,NA,lightblue,yellow,purple,All the players are tied,none-none-none,none-none-none,13,7,3258,NA
27,NA,purple,pink,lightblue,Player B placed second,half-half-half,half-half-half,12,2,3834,NA
27,NA,lightorange,grey,lightblue,Player B tied with Player C,none-none-half,none-none-half,15,1,4082,NA
27,NA,purple,midnight,lightblue,Every player hit some of his shots,none-half-all,all-half-none,14,1,3028,NA
27,NA,lavender,tan,pink,Someone did better than Player B,none-none-none,none-none-none,17,1,3212,NA
27,NA,lavender,grey,seafoam,Exactly one player hit all of his shots,none-half-all,all-half-none,16,7,3731,NA
27,NA,yellow,wheat,brown,Player C placed second,none-none-all,all-none-none,19,2,4441,NA
27,NA,seafoam,darkorange,wheat,Someone did better than Player C,none-half-half,half-half-none,18,7,4155,NA
27,NA,yellow,grey,seafoam,Player A was the star player of the round,most-none-all,most-none-all,-1,1,5728,yes
27,NA,wheat,yellow,grey,Player A made none of his baskets,all-none-few,all-none-few,-3,1,9456,yes
27,NA,tan,seafoam,lightorange,Player C messed up,all-all-none,all-all-none,-2,7,5360,yes
28,NA,tan,grey,wheat,Player C made no shots,none-none-all,none-all-none,24,7,3100,NA
28,NA,lightorange,grey,brown,Player A placed second,none-none-all,all-none-none,25,1,3816,NA
28,NA,purple,lightorange,royalblue,We have a clear winner,none-half-all,none-half-all,26,7,4715,NA
28,NA,wheat,lightblue,lavender,We have a clear loser,none-half-half,none-half-half,27,7,4117,NA
28,NA,lavender,purple,tan,Every player hit none of his shots,none-none-half,half-none-none,20,1,5283,NA
28,NA,royalblue,lightblue,wheat,Player B tied with Player C,half-all-all,half-all-all,21,7,3979,NA
28,NA,grey,purple,darkorange,Someone did better than Player B,none-none-none,none-none-none,22,1,4755,NA
28,NA,lightorange,seafoam,purple,Player A shot perfectly,none-none-none,none-none-none,23,1,1875,NA
28,NA,lavender,midnight,lightorange,No player hit all of his shots,none-half-all,none-half-all,28,1,15798,NA
28,NA,royalblue,lavender,darkorange,Player A tied with Player B,half-half-half,half-half-half,1,7,6330,NA
28,NA,midnight,grey,tan,Player A tied with Player C,none-none-none,none-none-none,0,7,10278,NA
28,NA,lavender,midnight,purple,Most of the players made shots,half-all-all,half-all-all,3,6,4922,NA
28,NA,lightorange,brown,yellow,Exactly one player hit some of his shots,none-none-half,none-half-none,2,7,8579,NA
28,NA,brown,tan,pink,Player A made no shots,none-none-all,all-none-none,5,1,6118,NA
28,NA,lightblue,grey,seafoam,All the players are tied,half-half-half,half-half-half,4,1,7029,NA
28,NA,pink,royalblue,lightorange,Exactly one player hit all of his shots,none-all-all,all-all-none,7,1,4481,NA
28,NA,purple,wheat,yellow,Player B made no shots,none-half-half,none-half-half,6,1,3219,NA
28,NA,midnight,darkorange,lavender,Player B shot perfectly,half-all-all,half-all-all,9,7,5460,NA
28,NA,darkorange,seafoam,midnight,Someone did better than Player A,none-all-all,none-all-all,8,5,4570,NA
28,NA,lightorange,lavender,tan,Player B placed second,none-half-all,half-none-all,11,1,4515,NA
28,NA,seafoam,wheat,grey,Every player hit some of his shots,half-all-all,all-half-all,10,5,4458,NA
28,NA,lightblue,royalblue,pink,Most of the players missed shots,none-half-half,half-half-none,13,5,4571,NA
28,NA,lavender,tan,seafoam,No player hit some of his shots,none-none-all,all-none-none,12,1,4171,NA
28,NA,lavender,royalblue,pink,Exactly one player hit none of his shots,none-none-all,all-none-none,15,1,15591,NA
28,NA,lavender,royalblue,purple,Someone did better than Player C,none-half-half,none-half-half,14,1,6188,NA
28,NA,brown,seafoam,purple,No player hit none of his shots,half-all-all,half-all-all,17,1,8113,NA
28,NA,yellow,brown,grey,Every player hit all of his shots,none-half-half,half-none-half,16,1,5178,NA
28,NA,lightorange,midnight,royalblue,Player C placed second,half-half-half,half-half-half,19,1,3395,NA
28,NA,seafoam,royalblue,brown,Player C shot perfectly,none-none-all,all-none-none,18,1,2706,NA
28,NA,wheat,lightblue,seafoam,Player A was the star player of the round,most-none-all,most-none-all,-1,1,11699,yes
28,NA,brown,grey,tan,Player A made none of his baskets,all-none-few,all-none-few,-3,1,15078,yes
28,NA,pink,lavender,darkorange,Player C messed up,all-all-none,all-all-none,-2,7,19843,no
29,NA,seafoam,grey,darkorange,Every player hit none of his shots,all-all-all,all-all-all,24,1,4799,NA
29,NA,yellow,lightblue,grey,Player A tied with Player B,all-all-all,all-all-all,25,7,5487,NA
29,NA,royalblue,midnight,wheat,Player C made no shots,half-half-all,all-half-half,26,1,4394,NA
29,NA,purple,darkorange,pink,All the players are tied,half-half-all,half-half-all,27,1,3924,NA
29,NA,midnight,tan,darkorange,Exactly one player hit all of his shots,half-half-half,half-half-half,20,1,4486,NA
29,NA,tan,midnight,seafoam,Someone did better than Player C,none-all-all,all-none-all,21,1,10514,NA
29,NA,yellow,purple,wheat,Every player hit all of his shots,half-half-half,half-half-half,22,1,11565,NA
29,NA,grey,midnight,pink,No player hit none of his shots,none-all-all,none-all-all,23,1,33598,NA
29,NA,royalblue,wheat,yellow,Exactly one player hit none of his shots,half-all-all,all-half-all,28,1,5348,NA
29,NA,midnight,pink,purple,Exactly one player hit some of his shots,all-all-all,all-all-all,1,1,5829,NA
29,NA,royalblue,purple,seafoam,Player B placed second,none-none-none,none-none-none,0,5,9869,NA
29,NA,seafoam,lavender,royalblue,Someone did better than Player A,half-all-all,all-all-half,3,2,14799,NA
29,NA,midnight,pink,lavender,No player hit all of his shots,none-none-none,none-none-none,2,7,9613,NA
29,NA,grey,purple,royalblue,Player A tied with Player C,none-all-all,all-none-all,5,7,6885,NA
29,NA,tan,yellow,purple,Player B made no shots,half-all-all,half-all-all,4,1,4705,NA
29,NA,pink,lavender,grey,Player B shot perfectly,none-half-half,none-half-half,7,1,3782,NA
29,NA,purple,grey,darkorange,Player C shot perfectly,half-all-all,all-all-half,6,1,4988,NA
29,NA,brown,lavender,yellow,Player A made no shots,half-half-half,half-half-half,9,1,5673,NA
29,NA,midnight,wheat,lightblue,Someone did better than Player B,none-none-none,none-none-none,8,1,6859,NA
29,NA,darkorange,purple,midnight,Most of the players missed shots,all-all-all,all-all-all,11,1,4175,NA
29,NA,lavender,seafoam,pink,No player hit some of his shots,half-half-all,half-all-half,10,1,5004,NA
29,NA,purple,darkorange,pink,We have a clear winner,none-all-all,all-none-all,13,1,4565,NA
29,NA,lavender,purple,tan,Most of the players made shots,none-none-none,none-none-none,12,1,6957,NA
29,NA,yellow,darkorange,lightblue,Player B tied with Player C,all-all-all,all-all-all,15,6,7756,NA
29,NA,lavender,brown,darkorange,Player C placed second,none-none-none,none-none-none,14,2,6987,NA
29,NA,royalblue,yellow,midnight,Player A shot perfectly,none-none-none,none-none-none,17,1,3723,NA
29,NA,seafoam,purple,pink,Every player hit some of his shots,none-none-all,none-all-none,16,1,5387,NA
29,NA,brown,royalblue,lightblue,We have a clear loser,none-half-half,none-half-half,19,6,8566,NA
29,NA,wheat,royalblue,seafoam,Player A placed second,all-all-all,all-all-all,18,2,6385,NA
29,NA,purple,midnight,seafoam,Player A was the star player of the round,most-none-all,most-none-all,-1,1,12539,yes
29,NA,royalblue,lightorange,lightblue,Player A made none of his baskets,all-none-few,all-none-few,-3,1,12442,yes
29,NA,purple,lavender,wheat,Player C messed up,all-all-none,all-all-none,-2,7,9067,yes
30,English,royalblue,wheat,yellow,No player hit none of his shots,none-none-half,half-none-none,24,1,3103,NA
30,English,lightorange,wheat,lavender,Most of the players missed shots,none-none-none,none-none-none,25,7,3455,NA
30,English,wheat,brown,seafoam,Player A tied with Player C,half-half-half,half-half-half,26,7,4081,NA
30,English,lavender,lightblue,purple,Most of the players made shots,all-all-all,all-all-all,27,7,2677,NA
30,English,wheat,darkorange,yellow,No player hit some of his shots,half-all-all,all-half-all,20,1,4320,NA
30,English,darkorange,grey,midnight,Player B shot perfectly,half-all-all,all-half-all,21,1,2798,NA
30,English,purple,brown,lightblue,Player B made no shots,none-none-none,none-none-none,22,7,2471,NA
30,English,brown,tan,pink,Every player hit all of his shots,none-half-half,half-half-none,23,1,3311,NA
30,English,tan,brown,midnight,Player C placed second,all-all-all,all-all-all,28,1,3815,NA
30,English,grey,brown,midnight,Player A placed second,none-none-half,none-none-half,1,2,7630,NA
30,English,tan,royalblue,wheat,Someone did better than Player A,half-half-half,half-half-half,0,1,6696,NA
30,English,purple,grey,yellow,We have a clear loser,none-none-half,half-none-none,3,1,4022,NA
30,English,darkorange,grey,seafoam,Player C shot perfectly,half-all-all,all-all-half,2,1,3542,NA
30,English,brown,seafoam,wheat,Player A tied with Player B,none-none-half,half-none-none,5,1,4887,NA
30,English,midnight,brown,lavender,Player A shot perfectly,half-half-half,half-half-half,4,1,4695,NA
30,English,seafoam,grey,darkorange,Player B placed second,none-none-all,all-none-none,7,2,4631,NA
30,English,purple,lightorange,pink,No player hit all of his shots,none-all-all,none-all-all,6,1,5262,NA
30,English,wheat,royalblue,lightblue,Exactly one player hit all of his shots,none-none-half,none-half-none,9,1,5270,NA
30,English,darkorange,grey,lavender,Exactly one player hit none of his shots,none-half-all,half-none-all,8,7,7591,NA
30,English,lightorange,yellow,grey,We have a clear winner,half-half-all,all-half-half,11,7,5783,NA
30,English,tan,wheat,royalblue,Someone did better than Player B,none-all-all,none-all-all,10,1,4950,NA
30,English,lightorange,royalblue,wheat,Player B tied with Player C,none-half-half,half-half-none,13,1,2960,NA
30,English,seafoam,grey,darkorange,Every player hit none of his shots,none-none-half,none-none-half,12,1,4119,NA
30,English,lightblue,darkorange,purple,Player A made no shots,none-half-all,none-half-all,15,7,6072,NA
30,English,lightblue,royalblue,midnight,All the players are tied,all-all-all,all-all-all,14,7,4231,NA
30,English,lightblue,midnight,wheat,Exactly one player hit some of his shots,half-all-all,all-half-all,17,7,5831,NA
30,English,darkorange,wheat,seafoam,Someone did better than Player C,none-half-half,none-half-half,16,1,4438,NA
30,English,pink,purple,yellow,Player C made no shots,half-half-all,half-half-all,19,1,4495,NA
30,English,lavender,pink,lightblue,Every player hit some of his shots,all-all-all,all-all-all,18,1,3799,NA
30,English,brown,seafoam,royalblue,Player A was the star player of the round,most-none-all,most-none-all,-1,1,9750,yes
30,English,brown,royalblue,lavender,Player A made none of his baskets,all-none-few,all-none-few,-3,1,26943,yes
30,English,brown,midnight,lavender,Player C messed up,all-all-none,all-all-none,-2,7,17857,no
31,English,purple,seafoam,wheat,We have a clear loser,half-all-all,half-all-all,24,5,4550,NA
31,English,lavender,midnight,lightorange,Player B tied with Player C,all-all-all,all-all-all,25,4,4284,NA
31,English,darkorange,brown,yellow,Every player hit all of his shots,half-half-all,half-all-half,26,1,4142,NA
31,English,darkorange,wheat,pink,Player C made no shots,all-all-all,all-all-all,27,1,3574,NA
31,English,purple,yellow,royalblue,Player A tied with Player B,none-none-none,none-none-none,20,3,3872,NA
31,English,tan,midnight,purple,No player hit none of his shots,none-all-all,all-all-none,21,1,5067,NA
31,English,tan,pink,purple,Exactly one player hit none of his shots,half-all-all,half-all-all,22,5,5422,NA
31,English,lavender,seafoam,royalblue,Player C placed second,none-none-half,half-none-none,23,3,3837,NA
31,English,purple,seafoam,lightorange,Most of the players made shots,all-all-all,all-all-all,28,2,4118,NA
31,English,pink,brown,lavender,All the players are tied,none-all-all,none-all-all,1,1,6132,NA
31,English,yellow,seafoam,brown,Player A tied with Player C,half-half-half,half-half-half,0,7,6839,NA
31,English,grey,lightorange,yellow,No player hit some of his shots,half-all-all,half-all-all,3,1,5428,NA
31,English,wheat,purple,lightblue,Player B shot perfectly,none-none-none,none-none-none,2,1,4998,NA
31,English,lavender,yellow,brown,Player B placed second,all-all-all,all-all-all,5,1,8925,NA
31,English,lightblue,grey,lightorange,Every player hit some of his shots,half-all-all,half-all-all,4,4,3864,NA
31,English,grey,yellow,midnight,Exactly one player hit some of his shots,half-half-all,all-half-half,7,1,5782,NA
31,English,brown,royalblue,wheat,Every player hit none of his shots,all-all-all,all-all-all,6,1,4341,NA
31,English,lightblue,wheat,lightorange,Player A placed second,half-half-all,half-all-half,9,4,5663,NA
31,English,grey,pink,lavender,No player hit all of his shots,half-half-half,half-half-half,8,7,3470,NA
31,English,grey,seafoam,lightblue,Player A made no shots,none-half-half,half-half-none,11,1,6791,NA
31,English,seafoam,midnight,darkorange,We have a clear winner,half-half-all,half-all-half,10,7,5774,NA
31,English,tan,pink,darkorange,Player B made no shots,none-none-half,none-none-half,13,6,6047,NA
31,English,lavender,brown,tan,Player C shot perfectly,none-none-all,none-all-none,12,1,3457,NA
