workerid,Answer.language,player1color,player2color,player3color,sentence,condition,conditionOrder,trialnum,response,rt,trainingCorrect
A4HIC25OBOQ0C,English,tan,lightorange,royalblue,Someone did better than Player C,half-all-all,half-all-all,24,1,6788,NA
A4HIC25OBOQ0C,English,lightorange,royalblue,darkorange,Someone did better than Player B,half-half-half,half-half-half,25,1,4051,NA
A4HIC25OBOQ0C,English,yellow,wheat,darkorange,We have a clear winner,none-none-half,half-none-none,26,7,5519,NA
A4HIC25OBOQ0C,English,yellow,wheat,darkorange,Exactly one player hit none of his shots,none-half-half,half-none-half,27,7,3487,NA
A4HIC25OBOQ0C,English,royalblue,grey,darkorange,Most of the players missed shots,none-half-all,half-none-all,20,7,7999,NA
A4HIC25OBOQ0C,English,yellow,wheat,seafoam,Player B shot perfectly,all-all-all,all-all-all,21,7,5155,NA
A4HIC25OBOQ0C,English,brown,grey,lightorange,Every player hit some of his shots,none-none-none,none-none-none,22,1,4282,NA
A4HIC25OBOQ0C,English,seafoam,lavender,lightblue,No player hit none of his shots,none-none-none,none-none-none,23,4,23386,NA
A4HIC25OBOQ0C,English,midnight,darkorange,royalblue,Player A made no shots,none-half-all,half-none-all,28,1,3363,NA
A4HIC25OBOQ0C,English,lightorange,brown,pink,All the players are tied,none-half-all,none-all-half,1,1,26924,NA
A4HIC25OBOQ0C,English,grey,tan,darkorange,Every player hit none of his shots,none-none-none,none-none-none,0,7,7570,NA
A4HIC25OBOQ0C,English,tan,lightblue,midnight,We have a clear loser,all-all-all,all-all-all,3,1,5348,NA
A4HIC25OBOQ0C,English,lightblue,grey,darkorange,Player C shot perfectly,half-half-all,half-all-half,2,1,9671,NA
A4HIC25OBOQ0C,English,lavender,yellow,darkorange,Every player hit all of his shots,half-half-half,half-half-half,5,1,4228,NA
A4HIC25OBOQ0C,English,lavender,tan,seafoam,Player A tied with Player B,all-all-all,all-all-all,4,7,10950,NA
A4HIC25OBOQ0C,English,tan,pink,darkorange,Player A placed second,none-none-all,all-none-none,7,1,6100,NA
A4HIC25OBOQ0C,English,darkorange,pink,midnight,Player A tied with Player C,none-none-half,none-half-none,6,7,4698,NA
A4HIC25OBOQ0C,English,seafoam,midnight,purple,Exactly one player hit all of his shots,all-all-all,all-all-all,9,1,3923,NA
A4HIC25OBOQ0C,English,brown,seafoam,yellow,Player B placed second,all-all-all,all-all-all,8,1,10483,NA
A4HIC25OBOQ0C,English,purple,seafoam,darkorange,No player hit all of his shots,half-all-all,all-all-half,11,1,4943,NA
A4HIC25OBOQ0C,English,yellow,lightblue,seafoam,Player B tied with Player C,none-none-none,none-none-none,10,4,13403,NA
A4HIC25OBOQ0C,English,lavender,tan,wheat,No player hit some of his shots,none-none-none,none-none-none,13,7,5995,NA
A4HIC25OBOQ0C,English,lightorange,wheat,seafoam,Player B made no shots,none-none-all,all-none-none,12,7,4768,NA
A4HIC25OBOQ0C,English,midnight,pink,purple,Player A shot perfectly,none-none-half,none-none-half,15,1,3670,NA
A4HIC25OBOQ0C,English,seafoam,tan,purple,Player C placed second,none-none-none,none-none-none,14,2,4927,NA
A4HIC25OBOQ0C,English,seafoam,tan,brown,Player C made no shots,half-all-all,all-half-all,17,1,3619,NA
A4HIC25OBOQ0C,English,lightblue,seafoam,grey,Most of the players made shots,half-half-half,half-half-half,16,5,8843,NA
A4HIC25OBOQ0C,English,pink,midnight,wheat,Exactly one player hit some of his shots,none-half-half,half-half-none,19,1,4663,NA
A4HIC25OBOQ0C,English,wheat,brown,tan,Someone did better than Player A,half-half-half,half-half-half,18,1,5628,NA
A4HIC25OBOQ0C,English,wheat,yellow,purple,Player A was the star player of the round,most-none-all,most-none-all,-1,1,12404,yes
A4HIC25OBOQ0C,English,yellow,tan,brown,Player A made none of his baskets,all-none-few,all-none-few,-3,1,17269,yes
A4HIC25OBOQ0C,English,purple,grey,tan,Player C messed up,all-all-none,all-all-none,-2,7,8706,yes
A2MMXYQKPUV5U7,english,tan,royalblue,grey,Someone did better than Player C,none-none-half,half-none-none,24,7,2409,NA
A2MMXYQKPUV5U7,english,lightblue,wheat,lightorange,All the players are tied,half-half-all,all-half-half,25,1,2221,NA
A2MMXYQKPUV5U7,english,lightblue,royalblue,brown,We have a clear loser,none-none-none,none-none-none,26,1,2487,NA
A2MMXYQKPUV5U7,english,yellow,darkorange,pink,Player A placed second,none-all-all,all-none-all,27,1,2731,NA
A2MMXYQKPUV5U7,english,wheat,midnight,darkorange,Player B tied with Player C,none-half-all,half-none-all,20,1,3197,NA
A2MMXYQKPUV5U7,english,pink,seafoam,lavender,Someone did better than Player B,none-half-half,half-half-none,21,1,3995,NA
A2MMXYQKPUV5U7,english,wheat,seafoam,lightorange,Exactly one player hit some of his shots,none-none-half,none-half-none,22,7,3320,NA
A2MMXYQKPUV5U7,english,pink,midnight,brown,Player A shot perfectly,half-all-all,all-half-all,23,7,2757,NA
A2MMXYQKPUV5U7,english,tan,midnight,lightblue,Most of the players made shots,none-none-half,none-half-none,28,1,4462,NA
A2MMXYQKPUV5U7,english,purple,midnight,yellow,No player hit none of his shots,none-half-half,half-half-none,1,1,4756,NA
A2MMXYQKPUV5U7,english,grey,yellow,lightorange,Every player hit none of his shots,half-all-all,all-half-all,0,1,4271,NA
A2MMXYQKPUV5U7,english,seafoam,midnight,yellow,Exactly one player hit all of his shots,half-half-all,half-all-half,3,7,3929,NA
A2MMXYQKPUV5U7,english,purple,lightblue,royalblue,No player hit some of his shots,half-all-all,all-half-all,2,1,5355,NA
A2MMXYQKPUV5U7,english,yellow,seafoam,midnight,No player hit all of his shots,none-none-none,none-none-none,5,7,3325,NA
A2MMXYQKPUV5U7,english,purple,lightorange,yellow,Player A made no shots,none-all-all,all-none-all,4,1,2805,NA
A2MMXYQKPUV5U7,english,seafoam,lightorange,grey,Someone did better than Player A,none-all-all,all-none-all,7,1,4623,NA
A2MMXYQKPUV5U7,english,yellow,lightblue,purple,Most of the players missed shots,none-none-half,half-none-none,6,7,3602,NA
A2MMXYQKPUV5U7,english,purple,royalblue,pink,Player C placed second,none-half-half,half-none-half,9,4,7670,NA
A2MMXYQKPUV5U7,english,grey,pink,yellow,Player A tied with Player B,none-all-all,all-none-all,8,1,2866,NA
A2MMXYQKPUV5U7,english,midnight,darkorange,pink,Player B placed second,half-all-all,all-all-half,11,3,5788,NA
A2MMXYQKPUV5U7,english,lightblue,midnight,yellow,We have a clear winner,none-none-none,none-none-none,10,1,3556,NA
A2MMXYQKPUV5U7,english,wheat,tan,royalblue,Exactly one player hit none of his shots,all-all-all,all-all-all,13,1,3829,NA
A2MMXYQKPUV5U7,english,yellow,pink,purple,Player C shot perfectly,none-none-none,none-none-none,12,1,3319,NA
A2MMXYQKPUV5U7,english,royalblue,lightorange,seafoam,Player B made no shots,none-none-none,none-none-none,15,7,2100,NA
A2MMXYQKPUV5U7,english,brown,seafoam,pink,Player C made no shots,none-half-all,half-all-none,14,7,2830,NA
A2MMXYQKPUV5U7,english,tan,lightorange,royalblue,Every player hit all of his shots,half-half-half,half-half-half,17,1,2750,NA
A2MMXYQKPUV5U7,english,darkorange,wheat,yellow,Every player hit some of his shots,none-half-half,half-half-none,16,1,2978,NA
A2MMXYQKPUV5U7,english,pink,seafoam,royalblue,Player B shot perfectly,none-half-half,none-half-half,19,1,2514,NA
A2MMXYQKPUV5U7,english,brown,darkorange,royalblue,Player A tied with Player C,half-half-all,half-half-all,18,1,3212,NA
A2MMXYQKPUV5U7,english,royalblue,purple,brown,Player A was the star player of the round,most-none-all,most-none-all,-1,1,8114,yes
A2MMXYQKPUV5U7,english,pink,grey,yellow,Player A made none of his baskets,all-none-few,all-none-few,-3,1,11756,yes
A2MMXYQKPUV5U7,english,royalblue,seafoam,purple,Player C messed up,all-all-none,all-all-none,-2,7,4821,yes
AW0225ONUAPO5,English,grey,lightorange,midnight,Player C placed second,none-none-half,none-half-none,24,6,2236,NA
AW0225ONUAPO5,English,darkorange,royalblue,yellow,Every player hit none of his shots,none-all-all,all-none-all,25,2,1578,NA
AW0225ONUAPO5,English,pink,royalblue,darkorange,Player A tied with Player B,none-none-none,none-none-none,26,5,2085,NA
AW0225ONUAPO5,English,pink,lightorange,royalblue,Most of the players made shots,none-none-half,half-none-none,27,2,2396,NA
AW0225ONUAPO5,English,lightblue,yellow,seafoam,No player hit all of his shots,half-half-half,half-half-half,20,5,1724,NA
AW0225ONUAPO5,English,wheat,brown,midnight,Player B shot perfectly,none-none-half,none-half-none,21,3,1316,NA
AW0225ONUAPO5,English,lavender,seafoam,royalblue,Player B made no shots,none-none-all,all-none-none,22,2,3172,NA
AW0225ONUAPO5,English,lightblue,tan,midnight,Player B placed second,none-none-all,none-none-all,23,6,3484,NA
AW0225ONUAPO5,English,darkorange,royalblue,lightblue,Player A shot perfectly,none-none-none,none-none-none,28,6,3339,NA
AW0225ONUAPO5,English,grey,royalblue,lavender,All the players are tied,half-half-half,half-half-half,1,5,1881,NA
AW0225ONUAPO5,English,tan,seafoam,brown,We have a clear winner,none-all-all,all-all-none,0,2,5331,NA
AW0225ONUAPO5,English,purple,midnight,grey,Most of the players missed shots,half-all-all,half-all-all,3,3,2514,NA
AW0225ONUAPO5,English,lavender,lightorange,purple,Someone did better than Player C,none-all-all,all-none-all,2,6,2819,NA
AW0225ONUAPO5,English,grey,brown,lavender,Someone did better than Player B,half-all-all,all-all-half,5,5,1468,NA
AW0225ONUAPO5,English,purple,yellow,wheat,Player A tied with Player C,none-all-all,none-all-all,4,6,1853,NA
AW0225ONUAPO5,English,lavender,darkorange,tan,Exactly one player hit all of his shots,none-all-all,none-all-all,7,6,2140,NA
AW0225ONUAPO5,English,lavender,seafoam,midnight,Someone did better than Player A,none-none-none,none-none-none,6,2,1868,NA
AW0225ONUAPO5,English,pink,wheat,royalblue,No player hit none of his shots,none-none-all,all-none-none,9,6,1918,NA
AW0225ONUAPO5,English,lightblue,wheat,brown,Exactly one player hit some of his shots,all-all-all,all-all-all,8,2,2467,NA
AW0225ONUAPO5,English,tan,royalblue,seafoam,Player A placed second,none-none-all,all-none-none,11,2,2093,NA
AW0225ONUAPO5,English,tan,royalblue,wheat,Every player hit some of his shots,none-all-all,all-all-none,10,6,2176,NA
AW0225ONUAPO5,English,yellow,grey,pink,Exactly one player hit none of his shots,half-half-all,all-half-half,13,5,2012,NA
AW0225ONUAPO5,English,pink,lightorange,brown,Player C shot perfectly,half-half-all,all-half-half,12,6,2330,NA
AW0225ONUAPO5,English,lavender,purple,lightblue,Every player hit all of his shots,none-half-half,half-half-none,15,6,1487,NA
AW0225ONUAPO5,English,seafoam,midnight,darkorange,Player B tied with Player C,none-all-all,all-none-all,14,2,1953,NA
AW0225ONUAPO5,English,darkorange,wheat,grey,Player A made no shots,none-none-half,none-half-none,17,6,1695,NA
AW0225ONUAPO5,English,royalblue,seafoam,pink,Player C made no shots,half-all-all,half-all-all,16,3,1708,NA
AW0225ONUAPO5,English,royalblue,pink,yellow,No player hit some of his shots,none-none-all,none-none-all,19,6,1733,NA
AW0225ONUAPO5,English,royalblue,lavender,lightblue,We have a clear loser,half-half-half,half-half-half,18,2,1598,NA
AW0225ONUAPO5,English,grey,darkorange,wheat,Player A was the star player of the round,most-none-all,most-none-all,-1,2,10473,no
AW0225ONUAPO5,English,midnight,royalblue,wheat,Player A made none of his baskets,all-none-few,all-none-few,-3,1,7111,yes
AW0225ONUAPO5,English,purple,wheat,brown,Player C messed up,all-all-none,all-all-none,-2,7,17792,no
A1BYZJ3GUK1O5Z,NA,royalblue,yellow,darkorange,Player B placed second,half-half-all,half-all-half,24,2,5638,NA
A1BYZJ3GUK1O5Z,NA,lightblue,pink,seafoam,Every player hit all of his shots,half-half-half,half-half-half,25,5,3396,NA
A1BYZJ3GUK1O5Z,NA,grey,lavender,darkorange,Exactly one player hit all of his shots,none-all-all,all-none-all,26,5,7178,NA
A1BYZJ3GUK1O5Z,NA,yellow,lavender,grey,Player C shot perfectly,half-half-all,all-half-half,27,6,5688,NA
A1BYZJ3GUK1O5Z,NA,yellow,lightorange,grey,Player B shot perfectly,half-half-all,half-all-half,20,2,5328,NA
A1BYZJ3GUK1O5Z,NA,seafoam,wheat,purple,No player hit none of his shots,none-half-all,all-half-none,21,5,3955,NA
A1BYZJ3GUK1O5Z,NA,wheat,royalblue,lightorange,Player A tied with Player C,none-none-all,none-none-all,22,2,3243,NA
A1BYZJ3GUK1O5Z,NA,yellow,lightorange,darkorange,We have a clear winner,none-all-all,all-all-none,23,3,4512,NA
A1BYZJ3GUK1O5Z,NA,purple,pink,wheat,Player A placed second,none-half-half,half-half-none,28,2,2290,NA
A1BYZJ3GUK1O5Z,NA,yellow,purple,seafoam,We have a clear loser,none-none-half,half-none-none,1,6,5399,NA
A1BYZJ3GUK1O5Z,NA,lavender,yellow,midnight,Player A made no shots,half-half-half,half-half-half,0,4,2181,NA
A1BYZJ3GUK1O5Z,NA,seafoam,lightblue,yellow,Player B made no shots,none-all-all,all-all-none,3,2,7183,NA
A1BYZJ3GUK1O5Z,NA,pink,brown,seafoam,No player hit all of his shots,none-none-half,none-half-none,2,5,5296,NA
A1BYZJ3GUK1O5Z,NA,midnight,lavender,yellow,Most of the players missed shots,half-half-all,half-half-all,5,6,46801,NA
A1BYZJ3GUK1O5Z,NA,royalblue,darkorange,lightblue,Exactly one player hit some of his shots,none-all-all,all-all-none,4,5,9519,NA
A1BYZJ3GUK1O5Z,NA,lightblue,lavender,royalblue,Someone did better than Player B,none-none-none,none-none-none,7,5,6633,NA
A1BYZJ3GUK1O5Z,NA,tan,yellow,midnight,No player hit some of his shots,none-none-half,none-half-none,6,4,4864,NA
A1BYZJ3GUK1O5Z,NA,purple,grey,lightorange,Every player hit none of his shots,half-half-half,half-half-half,9,2,4998,NA
A1BYZJ3GUK1O5Z,NA,pink,lightorange,seafoam,Most of the players made shots,none-all-all,all-all-none,8,4,8123,NA
A1BYZJ3GUK1O5Z,NA,seafoam,wheat,lightorange,Exactly one player hit none of his shots,none-none-all,none-none-all,11,2,5292,NA
A1BYZJ3GUK1O5Z,NA,grey,tan,wheat,All the players are tied,half-half-half,half-half-half,10,3,7783,NA
A1BYZJ3GUK1O5Z,NA,midnight,lightblue,darkorange,Player A tied with Player B,half-half-half,half-half-half,13,2,5031,NA
A1BYZJ3GUK1O5Z,NA,midnight,tan,pink,Someone did better than Player A,none-half-all,all-half-none,12,4,4249,NA
A1BYZJ3GUK1O5Z,NA,yellow,darkorange,purple,Every player hit some of his shots,none-none-none,none-none-none,15,4,4262,NA
A1BYZJ3GUK1O5Z,NA,brown,lightorange,grey,Player C made no shots,none-half-half,half-half-none,14,4,5949,NA
A1BYZJ3GUK1O5Z,NA,brown,pink,wheat,Player C placed second,all-all-all,all-all-all,17,3,4646,NA
A1BYZJ3GUK1O5Z,NA,lavender,darkorange,midnight,Player A shot perfectly,half-half-half,half-half-half,16,1,8564,NA
A1BYZJ3GUK1O5Z,NA,grey,pink,seafoam,Player B tied with Player C,half-all-all,all-all-half,19,3,6358,NA
A1BYZJ3GUK1O5Z,NA,darkorange,royalblue,yellow,Someone did better than Player C,none-none-all,none-all-none,18,4,3482,NA
A1BYZJ3GUK1O5Z,NA,grey,purple,tan,Player A was the star player of the round,most-none-all,most-none-all,-1,2,7562,no
A1BYZJ3GUK1O5Z,NA,grey,midnight,tan,Player A made none of his baskets,all-none-few,all-none-few,-3,1,18665,no
A1BYZJ3GUK1O5Z,NA,lightorange,midnight,darkorange,Player C messed up,all-all-none,all-all-none,-2,6,5370,yes
A31A4YKVSOYRVS,NA,yellow,seafoam,midnight,Exactly one player hit all of his shots,half-half-half,half-half-half,24,5,4143,NA
A31A4YKVSOYRVS,NA,brown,midnight,royalblue,Player A made no shots,none-none-none,none-none-none,25,7,5438,NA
A31A4YKVSOYRVS,NA,wheat,purple,grey,Player A shot perfectly,none-none-none,none-none-none,26,5,3973,NA
A31A4YKVSOYRVS,NA,royalblue,lightblue,pink,Player B shot perfectly,half-half-half,half-half-half,27,2,6804,NA
A31A4YKVSOYRVS,NA,lightblue,seafoam,lavender,Someone did better than Player B,none-none-none,none-none-none,20,6,6043,NA
A31A4YKVSOYRVS,NA,seafoam,purple,lightorange,Player C placed second,half-all-all,all-all-half,21,6,5526,NA
A31A4YKVSOYRVS,NA,brown,midnight,seafoam,All the players are tied,none-none-none,none-none-none,22,4,3933,NA
A31A4YKVSOYRVS,NA,lightblue,lightorange,brown,Player C shot perfectly,half-half-all,half-all-half,23,6,3505,NA
A31A4YKVSOYRVS,NA,purple,tan,grey,No player hit some of his shots,none-none-none,none-none-none,28,4,5013,NA
A31A4YKVSOYRVS,NA,wheat,lavender,purple,Most of the players made shots,none-none-none,none-none-none,1,3,4639,NA
A31A4YKVSOYRVS,NA,tan,brown,purple,Exactly one player hit some of his shots,none-none-all,none-all-none,0,2,3030,NA
A31A4YKVSOYRVS,NA,yellow,lavender,brown,Every player hit none of his shots,none-none-half,none-half-none,3,6,5344,NA
A31A4YKVSOYRVS,NA,wheat,lightblue,yellow,We have a clear winner,none-half-all,half-all-none,2,5,7557,NA
A31A4YKVSOYRVS,NA,brown,lightblue,grey,Player A placed second,half-half-half,half-half-half,5,2,5410,NA
A31A4YKVSOYRVS,NA,wheat,purple,yellow,Every player hit some of his shots,half-half-half,half-half-half,4,6,3222,NA
A31A4YKVSOYRVS,NA,royalblue,pink,brown,Player A tied with Player B,none-none-half,half-none-none,7,2,11755,NA
A31A4YKVSOYRVS,NA,midnight,lavender,pink,Player C made no shots,none-all-all,all-all-none,6,2,35623,NA
A31A4YKVSOYRVS,NA,grey,lavender,tan,Player B placed second,half-half-half,half-half-half,9,5,8595,NA
A31A4YKVSOYRVS,NA,lightorange,pink,tan,Someone did better than Player C,none-none-half,none-half-none,8,2,6616,NA
A31A4YKVSOYRVS,NA,pink,brown,seafoam,Someone did better than Player A,half-half-half,half-half-half,11,6,5446,NA
A31A4YKVSOYRVS,NA,lavender,grey,tan,Player B tied with Player C,none-none-none,none-none-none,10,6,3962,NA
A31A4YKVSOYRVS,NA,darkorange,royalblue,wheat,No player hit none of his shots,half-half-all,all-half-half,13,5,4153,NA
A31A4YKVSOYRVS,NA,grey,seafoam,royalblue,Player A tied with Player C,all-all-all,all-all-all,12,5,8102,NA
A31A4YKVSOYRVS,NA,royalblue,brown,tan,Player B made no shots,none-all-all,none-all-all,15,6,5671,NA
A31A4YKVSOYRVS,NA,midnight,royalblue,grey,Most of the players missed shots,half-all-all,half-all-all,14,6,5897,NA
A31A4YKVSOYRVS,NA,yellow,darkorange,royalblue,Every player hit all of his shots,half-all-all,all-all-half,17,7,6899,NA
A31A4YKVSOYRVS,NA,wheat,darkorange,brown,No player hit all of his shots,none-half-half,half-half-none,16,5,4667,NA
A31A4YKVSOYRVS,NA,purple,brown,darkorange,We have a clear loser,half-half-all,half-half-all,19,5,4194,NA
A31A4YKVSOYRVS,NA,lightblue,yellow,pink,Exactly one player hit none of his shots,none-half-half,none-half-half,18,4,5224,NA
A31A4YKVSOYRVS,NA,grey,midnight,pink,Player A was the star player of the round,most-none-all,most-none-all,-1,2,7679,yes
A31A4YKVSOYRVS,NA,lavender,pink,purple,Player A made none of his baskets,all-none-few,all-none-few,-3,1,20721,no
A31A4YKVSOYRVS,NA,seafoam,midnight,purple,Player C messed up,all-all-none,all-all-none,-2,6,4493,yes
APSJG3ZS975I8,NA,pink,midnight,grey,Player A made no shots,none-all-all,none-all-all,24,7,4053,NA
APSJG3ZS975I8,NA,darkorange,lightorange,pink,Someone did better than Player A,none-none-none,none-none-none,25,1,3510,NA
APSJG3ZS975I8,NA,lavender,seafoam,grey,Someone did better than Player B,none-half-half,half-half-none,26,1,4406,NA
APSJG3ZS975I8,NA,tan,yellow,brown,Every player hit some of his shots,none-half-all,all-none-half,27,1,4597,NA
APSJG3ZS975I8,NA,purple,lightblue,midnight,Player A tied with Player B,all-all-all,all-all-all,20,7,4365,NA
APSJG3ZS975I8,NA,wheat,royalblue,grey,Exactly one player hit all of his shots,none-none-half,half-none-none,21,1,4478,NA
APSJG3ZS975I8,NA,pink,wheat,grey,Exactly one player hit none of his shots,none-none-half,none-none-half,22,1,4598,NA
APSJG3ZS975I8,NA,yellow,tan,pink,Player B made no shots,none-half-half,half-half-none,23,1,4910,NA
APSJG3ZS975I8,NA,royalblue,tan,lightorange,All the players are tied,half-all-all,all-half-all,28,1,2941,NA
APSJG3ZS975I8,NA,tan,yellow,brown,We have a clear winner,none-none-all,none-none-all,1,7,4846,NA
APSJG3ZS975I8,NA,seafoam,brown,lightblue,No player hit none of his shots,none-all-all,all-none-all,0,1,8332,NA
APSJG3ZS975I8,NA,yellow,darkorange,lightblue,No player hit some of his shots,none-half-all,half-all-none,3,1,14591,NA
APSJG3ZS975I8,NA,yellow,pink,lightorange,Player B tied with Player C,none-none-half,none-half-none,2,1,4262,NA
APSJG3ZS975I8,NA,darkorange,midnight,grey,Player A shot perfectly,half-all-all,all-half-all,5,7,3686,NA
APSJG3ZS975I8,NA,pink,royalblue,lavender,Most of the players made shots,half-half-half,half-half-half,4,7,6269,NA
APSJG3ZS975I8,NA,seafoam,royalblue,tan,No player hit all of his shots,none-none-none,none-none-none,7,7,3527,NA
APSJG3ZS975I8,NA,tan,seafoam,pink,Player A tied with Player C,none-half-all,half-all-none,6,1,4359,NA
APSJG3ZS975I8,NA,pink,darkorange,royalblue,Exactly one player hit some of his shots,none-half-all,half-all-none,9,1,8830,NA
APSJG3ZS975I8,NA,lightorange,grey,pink,Player B placed second,all-all-all,all-all-all,8,1,2677,NA
APSJG3ZS975I8,NA,lightblue,yellow,midnight,Every player hit none of his shots,none-half-half,half-half-none,11,1,8247,NA
APSJG3ZS975I8,NA,pink,midnight,seafoam,Most of the players missed shots,none-half-all,none-half-all,10,1,2950,NA
APSJG3ZS975I8,NA,royalblue,lightblue,darkorange,Player C made no shots,none-half-half,none-half-half,13,1,4647,NA
APSJG3ZS975I8,NA,yellow,grey,wheat,Player C placed second,none-half-half,half-none-half,12,1,6908,NA
APSJG3ZS975I8,NA,midnight,tan,lightorange,Player A placed second,none-half-half,half-none-half,15,2,4444,NA
APSJG3ZS975I8,NA,pink,lavender,yellow,We have a clear loser,half-half-all,all-half-half,14,2,5623,NA
APSJG3ZS975I8,NA,wheat,royalblue,yellow,Player B shot perfectly,all-all-all,all-all-all,17,7,4566,NA
APSJG3ZS975I8,NA,darkorange,royalblue,purple,Player C shot perfectly,none-none-half,none-none-half,16,1,3278,NA
APSJG3ZS975I8,NA,seafoam,midnight,pink,Someone did better than Player C,all-all-all,all-all-all,19,1,4726,NA
APSJG3ZS975I8,NA,pink,tan,brown,Every player hit all of his shots,none-none-half,none-half-none,18,1,4678,NA
APSJG3ZS975I8,NA,royalblue,midnight,purple,Player A was the star player of the round,most-none-all,most-none-all,-1,1,9571,yes
APSJG3ZS975I8,NA,pink,yellow,lightorange,Player A made none of his baskets,all-none-few,all-none-few,-3,1,27442,no
APSJG3ZS975I8,NA,midnight,wheat,darkorange,Player C messed up,all-all-none,all-all-none,-2,7,7173,yes
A2P1VYBQ79Y92Q,NA,pink,brown,wheat,Most of the players missed shots,half-all-all,all-all-half,24,1,1929,NA
A2P1VYBQ79Y92Q,NA,yellow,midnight,pink,All the players are tied,none-none-half,none-half-none,25,1,2961,NA
A2P1VYBQ79Y92Q,NA,seafoam,lightblue,lavender,No player hit some of his shots,all-all-all,all-all-all,26,1,2584,NA
A2P1VYBQ79Y92Q,NA,brown,seafoam,lightblue,Player C placed second,none-none-all,none-all-none,27,1,2929,NA
A2P1VYBQ79Y92Q,NA,darkorange,lightorange,tan,Player B placed second,half-half-half,half-half-half,20,1,1743,NA
A2P1VYBQ79Y92Q,NA,pink,wheat,purple,Someone did better than Player A,all-all-all,all-all-all,21,1,3780,NA
A2P1VYBQ79Y92Q,NA,grey,tan,brown,No player hit none of his shots,half-half-half,half-half-half,22,7,3915,NA
A2P1VYBQ79Y92Q,NA,purple,tan,royalblue,Player B made no shots,none-half-all,half-all-none,23,1,2389,NA
A2P1VYBQ79Y92Q,NA,tan,seafoam,royalblue,We have a clear loser,all-all-all,all-all-all,28,1,3444,NA
A2P1VYBQ79Y92Q,NA,seafoam,royalblue,lightorange,Exactly one player hit none of his shots,half-half-all,all-half-half,1,1,3853,NA
A2P1VYBQ79Y92Q,NA,lightblue,grey,darkorange,Player A tied with Player C,all-all-all,all-all-all,0,7,4172,NA
A2P1VYBQ79Y92Q,NA,royalblue,darkorange,seafoam,Exactly one player hit all of his shots,all-all-all,all-all-all,3,1,3119,NA
A2P1VYBQ79Y92Q,NA,pink,grey,darkorange,Every player hit none of his shots,none-none-none,none-none-none,2,7,3108,NA
A2P1VYBQ79Y92Q,NA,pink,wheat,midnight,Player C made no shots,none-none-half,none-none-half,5,1,33782,NA
A2P1VYBQ79Y92Q,NA,wheat,purple,tan,Player A tied with Player B,none-all-all,all-none-all,4,1,3324,NA
A2P1VYBQ79Y92Q,NA,yellow,darkorange,grey,Player B shot perfectly,none-half-all,none-all-half,7,7,1901,NA
A2P1VYBQ79Y92Q,NA,purple,yellow,midnight,Exactly one player hit some of his shots,half-all-all,all-half-all,6,7,3634,NA
A2P1VYBQ79Y92Q,NA,darkorange,midnight,tan,Player C shot perfectly,all-all-all,all-all-all,9,7,2542,NA
A2P1VYBQ79Y92Q,NA,midnight,wheat,lightblue,Someone did better than Player C,half-half-half,half-half-half,8,1,3399,NA
A2P1VYBQ79Y92Q,NA,grey,lavender,seafoam,Player B tied with Player C,half-half-half,half-half-half,11,7,1883,NA
A2P1VYBQ79Y92Q,NA,lightblue,midnight,yellow,Someone did better than Player B,none-half-all,all-half-none,10,7,1912,NA
A2P1VYBQ79Y92Q,NA,pink,lightblue,midnight,Every player hit all of his shots,half-all-all,half-all-all,13,1,3119,NA
A2P1VYBQ79Y92Q,NA,wheat,brown,lavender,Player A made no shots,half-half-all,half-all-half,12,1,2808,NA
A2P1VYBQ79Y92Q,NA,royalblue,pink,tan,Player A placed second,none-none-none,none-none-none,15,1,2200,NA
A2P1VYBQ79Y92Q,NA,purple,grey,lightblue,Every player hit some of his shots,none-none-half,none-half-none,14,1,2266,NA
A2P1VYBQ79Y92Q,NA,royalblue,lightblue,wheat,Most of the players made shots,half-half-half,half-half-half,17,7,3146,NA
A2P1VYBQ79Y92Q,NA,tan,wheat,brown,Player A shot perfectly,half-all-all,half-all-all,16,1,3233,NA
A2P1VYBQ79Y92Q,NA,pink,lightorange,tan,No player hit all of his shots,none-none-none,none-none-none,19,7,2174,NA
A2P1VYBQ79Y92Q,NA,darkorange,pink,lavender,We have a clear winner,half-half-half,half-half-half,18,1,2841,NA
A2P1VYBQ79Y92Q,NA,yellow,lavender,wheat,Player A was the star player of the round,most-none-all,most-none-all,-1,1,6417,yes
A2P1VYBQ79Y92Q,NA,royalblue,midnight,lavender,Player A made none of his baskets,all-none-few,all-none-few,-3,1,20248,yes
A2P1VYBQ79Y92Q,NA,midnight,seafoam,purple,Player C messed up,all-all-none,all-all-none,-2,7,5231,yes
A3DDFEQ9K0H93C,NA,lightorange,seafoam,midnight,Most of the players missed shots,half-all-all,all-all-half,24,1,4326,NA
A3DDFEQ9K0H93C,NA,royalblue,grey,brown,Player B shot perfectly,none-none-none,none-none-none,25,1,2264,NA
A3DDFEQ9K0H93C,NA,brown,wheat,lightorange,Someone did better than Player C,none-half-half,none-half-half,26,1,4209,NA
A3DDFEQ9K0H93C,NA,darkorange,tan,brown,Every player hit none of his shots,none-all-all,all-all-none,27,1,3539,NA
A3DDFEQ9K0H93C,NA,pink,yellow,grey,No player hit all of his shots,half-half-all,half-all-half,20,1,5030,NA
A3DDFEQ9K0H93C,NA,grey,seafoam,tan,Every player hit some of his shots,none-none-half,half-none-none,21,1,8514,NA
A3DDFEQ9K0H93C,NA,midnight,seafoam,tan,Most of the players made shots,half-half-half,half-half-half,22,4,7468,NA
A3DDFEQ9K0H93C,NA,midnight,pink,yellow,We have a clear loser,half-half-half,half-half-half,23,1,4444,NA
A3DDFEQ9K0H93C,NA,royalblue,lavender,yellow,Player A tied with Player C,half-half-all,all-half-half,28,1,3614,NA
A3DDFEQ9K0H93C,NA,lightorange,purple,grey,No player hit none of his shots,none-none-none,none-none-none,1,2,21044,NA
A3DDFEQ9K0H93C,NA,lightblue,darkorange,royalblue,No player hit some of his shots,none-none-all,none-all-none,0,1,129928,NA
A3DDFEQ9K0H93C,NA,tan,midnight,purple,Player A made no shots,all-all-all,all-all-all,3,1,3562,NA
A3DDFEQ9K0H93C,NA,darkorange,brown,purple,Player C shot perfectly,none-all-all,none-all-all,2,7,4732,NA
A3DDFEQ9K0H93C,NA,purple,brown,royalblue,We have a clear winner,none-none-half,none-none-half,5,7,4019,NA
A3DDFEQ9K0H93C,NA,royalblue,purple,yellow,Someone did better than Player B,half-all-all,half-all-all,4,1,5751,NA
A3DDFEQ9K0H93C,NA,wheat,grey,lightorange,All the players are tied,none-none-all,none-all-none,7,3,8818,NA
A3DDFEQ9K0H93C,NA,lightorange,lightblue,wheat,Exactly one player hit all of his shots,none-none-all,all-none-none,6,7,4991,NA
A3DDFEQ9K0H93C,NA,grey,darkorange,brown,Every player hit all of his shots,none-half-half,half-none-half,9,1,3334,NA
A3DDFEQ9K0H93C,NA,lavender,yellow,brown,Player A placed second,none-none-half,half-none-none,8,1,6257,NA
A3DDFEQ9K0H93C,NA,seafoam,pink,wheat,Exactly one player hit some of his shots,none-half-all,half-all-none,11,7,5679,NA
A3DDFEQ9K0H93C,NA,pink,lavender,tan,Player B placed second,half-half-all,all-half-half,10,3,6411,NA
A3DDFEQ9K0H93C,NA,lightorange,tan,grey,Exactly one player hit none of his shots,none-none-half,half-none-none,13,1,20710,NA
A3DDFEQ9K0H93C,NA,tan,grey,pink,Player B tied with Player C,half-all-all,all-all-half,12,1,4364,NA
A3DDFEQ9K0H93C,NA,purple,darkorange,brown,Someone did better than Player A,none-half-all,none-half-all,15,7,4202,NA
A3DDFEQ9K0H93C,NA,pink,darkorange,purple,Player B made no shots,none-none-all,all-none-none,14,7,3192,NA
A3DDFEQ9K0H93C,NA,seafoam,pink,brown,Player C placed second,none-none-half,half-none-none,17,5,6310,NA
A3DDFEQ9K0H93C,NA,lavender,purple,lightorange,Player A shot perfectly,none-all-all,all-all-none,16,7,3034,NA
A3DDFEQ9K0H93C,NA,pink,tan,grey,Player C made no shots,half-half-all,all-half-half,19,1,4227,NA
A3DDFEQ9K0H93C,NA,grey,pink,lavender,Player A tied with Player B,half-half-half,half-half-half,18,7,4068,NA
A3DDFEQ9K0H93C,NA,yellow,pink,darkorange,Player A was the star player of the round,most-none-all,most-none-all,-1,1,12248,yes
A3DDFEQ9K0H93C,NA,lightorange,darkorange,midnight,Player A made none of his baskets,all-none-few,all-none-few,-3,1,12675,yes
A3DDFEQ9K0H93C,NA,lavender,tan,pink,Player C messed up,all-all-none,all-all-none,-2,6,8520,yes
AKLV0WIZZ356X,NA,brown,yellow,darkorange,Every player hit none of his shots,half-half-all,half-half-all,24,1,5513,NA
AKLV0WIZZ356X,NA,tan,seafoam,brown,Player A tied with Player B,none-none-half,none-half-none,25,1,4739,NA
AKLV0WIZZ356X,NA,darkorange,wheat,seafoam,Player B shot perfectly,all-all-all,all-all-all,26,7,3514,NA
AKLV0WIZZ356X,NA,lightorange,purple,darkorange,Most of the players missed shots,none-half-all,half-all-none,27,7,5813,NA
AKLV0WIZZ356X,NA,seafoam,darkorange,brown,Player C shot perfectly,none-none-none,none-none-none,20,1,3956,NA
AKLV0WIZZ356X,NA,lightorange,purple,tan,Exactly one player hit some of his shots,none-half-half,half-half-none,21,1,4240,NA
AKLV0WIZZ356X,NA,grey,purple,yellow,No player hit all of his shots,half-half-all,half-all-half,22,1,4077,NA
AKLV0WIZZ356X,NA,midnight,grey,seafoam,Player C placed second,none-all-all,all-none-all,23,1,8339,NA
AKLV0WIZZ356X,NA,brown,midnight,lightorange,Exactly one player hit none of his shots,none-none-all,none-none-all,28,1,4114,NA
AKLV0WIZZ356X,NA,purple,darkorange,lightblue,We have a clear loser,none-none-half,half-none-none,1,5,8529,NA
AKLV0WIZZ356X,NA,lightorange,midnight,pink,Most of the players made shots,all-all-all,all-all-all,0,4,9946,NA
AKLV0WIZZ356X,NA,brown,seafoam,pink,Player C made no shots,none-none-all,none-none-all,3,1,3749,NA
AKLV0WIZZ356X,NA,lightorange,midnight,darkorange,No player hit none of his shots,none-none-none,none-none-none,2,3,12378,NA
AKLV0WIZZ356X,NA,lavender,yellow,pink,Every player hit all of his shots,none-none-all,none-none-all,5,1,3226,NA
AKLV0WIZZ356X,NA,brown,tan,purple,Player A made no shots,none-none-half,half-none-none,4,1,3509,NA
AKLV0WIZZ356X,NA,darkorange,midnight,purple,Player B made no shots,half-half-all,half-all-half,7,1,3242,NA
AKLV0WIZZ356X,NA,grey,purple,royalblue,No player hit some of his shots,none-half-all,none-half-all,6,1,5868,NA
AKLV0WIZZ356X,NA,midnight,lightblue,pink,Player B placed second,none-half-half,half-half-none,9,1,5443,NA
AKLV0WIZZ356X,NA,grey,pink,brown,Player B tied with Player C,half-all-all,all-half-all,8,1,4354,NA
AKLV0WIZZ356X,NA,yellow,lightorange,lightblue,Player A shot perfectly,none-none-none,none-none-none,11,1,3179,NA
AKLV0WIZZ356X,NA,lavender,royalblue,lightblue,Exactly one player hit all of his shots,none-none-half,none-half-none,10,1,3895,NA
AKLV0WIZZ356X,NA,pink,royalblue,darkorange,We have a clear winner,half-half-all,half-all-half,13,7,3300,NA
AKLV0WIZZ356X,NA,tan,yellow,purple,Player A tied with Player C,none-none-none,none-none-none,12,7,6072,NA
AKLV0WIZZ356X,NA,tan,yellow,lightorange,Someone did better than Player C,none-none-none,none-none-none,15,1,4365,NA
AKLV0WIZZ356X,NA,seafoam,purple,wheat,All the players are tied,half-half-half,half-half-half,14,7,3375,NA
AKLV0WIZZ356X,NA,royalblue,brown,seafoam,Player A placed second,none-half-half,none-half-half,17,7,10370,NA
AKLV0WIZZ356X,NA,midnight,royalblue,grey,Every player hit some of his shots,half-all-all,all-half-all,16,7,3783,NA
AKLV0WIZZ356X,NA,lightblue,lavender,yellow,Someone did better than Player B,half-half-all,all-half-half,19,7,4716,NA
AKLV0WIZZ356X,NA,yellow,midnight,lavender,Someone did better than Player A,half-all-all,all-half-all,18,1,6511,NA
AKLV0WIZZ356X,NA,yellow,seafoam,grey,Player A was the star player of the round,most-none-all,most-none-all,-1,1,11514,yes
AKLV0WIZZ356X,NA,wheat,lavender,seafoam,Player A made none of his baskets,all-none-few,all-none-few,-3,1,12477,yes
AKLV0WIZZ356X,NA,lightblue,seafoam,darkorange,Player C messed up,all-all-none,all-all-none,-2,7,7795,yes
A2E3TO92MCQ9XU,NA,pink,lavender,lightblue,Someone did better than Player A,none-half-all,none-all-half,24,7,3142,NA
A2E3TO92MCQ9XU,NA,brown,darkorange,lightblue,We have a clear winner,half-half-all,half-all-half,25,7,2786,NA
A2E3TO92MCQ9XU,NA,yellow,brown,grey,We have a clear loser,none-none-none,none-none-none,26,1,3552,NA
A2E3TO92MCQ9XU,NA,wheat,purple,darkorange,No player hit all of his shots,none-none-none,none-none-none,27,7,3085,NA
A2E3TO92MCQ9XU,NA,royalblue,pink,purple,Exactly one player hit some of his shots,none-half-all,all-half-none,20,1,4794,NA
A2E3TO92MCQ9XU,NA,midnight,pink,lightblue,Player C made no shots,all-all-all,all-all-all,21,1,3083,NA
A2E3TO92MCQ9XU,NA,purple,darkorange,seafoam,All the players are tied,none-half-all,all-none-half,22,1,3061,NA
A2E3TO92MCQ9XU,NA,yellow,lavender,darkorange,Exactly one player hit none of his shots,none-none-half,none-half-none,23,1,3443,NA
A2E3TO92MCQ9XU,NA,grey,midnight,lavender,Most of the players made shots,half-all-all,all-all-half,28,3,3570,NA
A2E3TO92MCQ9XU,NA,lavender,purple,brown,Every player hit some of his shots,all-all-all,all-all-all,1,5,5327,NA
A2E3TO92MCQ9XU,NA,lightorange,tan,royalblue,Player A shot perfectly,half-all-all,all-half-all,0,7,4412,NA
A2E3TO92MCQ9XU,NA,pink,wheat,royalblue,Player A tied with Player B,half-all-all,all-half-all,3,1,4057,NA
A2E3TO92MCQ9XU,NA,tan,brown,grey,Player C placed second,none-all-all,all-none-all,2,2,5395,NA
A2E3TO92MCQ9XU,NA,purple,tan,lavender,Player B placed second,none-all-all,none-all-all,5,3,3536,NA
A2E3TO92MCQ9XU,NA,seafoam,grey,lightorange,Player B made no shots,none-none-none,none-none-none,4,7,2769,NA
A2E3TO92MCQ9XU,NA,lightorange,yellow,grey,Every player hit all of his shots,none-none-half,half-none-none,7,1,3275,NA
A2E3TO92MCQ9XU,NA,seafoam,yellow,royalblue,Player B tied with Player C,none-half-all,all-none-half,6,1,2890,NA
A2E3TO92MCQ9XU,NA,brown,pink,seafoam,No player hit some of his shots,none-none-all,none-none-all,9,4,4598,NA
A2E3TO92MCQ9XU,NA,seafoam,tan,lavender,Someone did better than Player B,none-half-half,half-none-half,8,7,3635,NA
A2E3TO92MCQ9XU,NA,lightblue,midnight,purple,Player B shot perfectly,none-none-all,none-none-all,11,1,2080,NA
A2E3TO92MCQ9XU,NA,lightorange,pink,purple,Player A made no shots,half-half-all,half-all-half,10,1,2969,NA
A2E3TO92MCQ9XU,NA,purple,yellow,seafoam,Player A placed second,half-half-half,half-half-half,13,1,3563,NA
A2E3TO92MCQ9XU,NA,wheat,grey,royalblue,Every player hit none of his shots,half-all-all,all-all-half,12,1,3395,NA
A2E3TO92MCQ9XU,NA,lightblue,grey,tan,Player C shot perfectly,half-half-all,all-half-half,15,1,2212,NA
A2E3TO92MCQ9XU,NA,brown,yellow,purple,Player A tied with Player C,none-half-all,none-all-half,14,1,2969,NA
A2E3TO92MCQ9XU,NA,seafoam,midnight,grey,Most of the players missed shots,none-half-all,all-none-half,17,5,5744,NA
A2E3TO92MCQ9XU,NA,purple,tan,lightblue,No player hit none of his shots,half-half-all,half-all-half,16,5,7903,NA
A2E3TO92MCQ9XU,NA,royalblue,lightorange,lavender,Exactly one player hit all of his shots,none-none-none,none-none-none,19,1,2630,NA
A2E3TO92MCQ9XU,NA,lightblue,pink,purple,Someone did better than Player C,none-all-all,none-all-all,18,1,3802,NA
A2E3TO92MCQ9XU,NA,royalblue,pink,lavender,Player A was the star player of the round,most-none-all,most-none-all,-1,1,7284,yes
A2E3TO92MCQ9XU,NA,lightblue,royalblue,seafoam,Player A made none of his baskets,all-none-few,all-none-few,-3,1,10861,yes
A2E3TO92MCQ9XU,NA,yellow,brown,tan,Player C messed up,all-all-none,all-all-none,-2,7,12186,no
ASFFW3A9FFHPN,NA,lightorange,midnight,tan,Player C made no shots,none-half-all,all-none-half,24,1,3811,NA
ASFFW3A9FFHPN,NA,grey,lightblue,midnight,Player A tied with Player C,none-none-all,none-all-none,25,5,4474,NA
ASFFW3A9FFHPN,NA,yellow,midnight,lightblue,Someone did better than Player B,all-all-all,all-all-all,26,2,7236,NA
ASFFW3A9FFHPN,NA,midnight,darkorange,yellow,All the players are tied,none-none-half,half-none-none,27,1,3666,NA
ASFFW3A9FFHPN,NA,midnight,yellow,pink,Player A placed second,none-none-all,none-all-none,20,5,6725,NA
ASFFW3A9FFHPN,NA,wheat,grey,darkorange,Every player hit some of his shots,half-all-all,half-all-all,21,6,5287,NA
ASFFW3A9FFHPN,NA,lightblue,brown,purple,Player A shot perfectly,none-half-half,none-half-half,22,1,4583,NA
ASFFW3A9FFHPN,NA,midnight,brown,wheat,Player C placed second,half-all-all,half-all-all,23,3,10915,NA
ASFFW3A9FFHPN,NA,pink,brown,yellow,Every player hit none of his shots,none-none-all,none-none-all,28,1,4117,NA
ASFFW3A9FFHPN,NA,yellow,lightblue,royalblue,We have a clear loser,none-none-all,none-all-none,1,2,7044,NA
ASFFW3A9FFHPN,NA,darkorange,royalblue,yellow,Player B shot perfectly,half-all-all,all-half-all,0,1,4287,NA
ASFFW3A9FFHPN,NA,brown,royalblue,wheat,We have a clear winner,half-half-half,half-half-half,3,1,3762,NA
ASFFW3A9FFHPN,NA,yellow,darkorange,lavender,Exactly one player hit all of his shots,none-none-none,none-none-none,2,1,5889,NA
ASFFW3A9FFHPN,NA,wheat,brown,lavender,Player B placed second,none-half-half,half-half-none,5,4,6035,NA
ASFFW3A9FFHPN,NA,seafoam,midnight,darkorange,Exactly one player hit some of his shots,none-none-none,none-none-none,4,1,4535,NA
ASFFW3A9FFHPN,NA,purple,darkorange,lightblue,Exactly one player hit none of his shots,half-all-all,half-all-all,7,1,5777,NA
ASFFW3A9FFHPN,NA,yellow,tan,purple,Player A made no shots,none-all-all,all-none-all,6,1,4784,NA
ASFFW3A9FFHPN,NA,grey,wheat,yellow,Every player hit all of his shots,none-all-all,all-none-all,9,1,3604,NA
ASFFW3A9FFHPN,NA,pink,brown,lightblue,Player A tied with Player B,half-half-half,half-half-half,8,6,5202,NA
ASFFW3A9FFHPN,NA,midnight,brown,tan,No player hit some of his shots,half-half-all,all-half-half,11,2,10050,NA
ASFFW3A9FFHPN,NA,darkorange,seafoam,wheat,Most of the players made shots,none-half-half,half-half-none,10,6,7757,NA
ASFFW3A9FFHPN,NA,tan,midnight,pink,Most of the players missed shots,none-half-all,half-none-all,13,5,6318,NA
ASFFW3A9FFHPN,NA,midnight,royalblue,grey,Player B made no shots,none-none-all,none-none-all,12,7,6299,NA
ASFFW3A9FFHPN,NA,darkorange,royalblue,yellow,No player hit all of his shots,none-none-none,none-none-none,15,7,6234,NA
ASFFW3A9FFHPN,NA,lavender,tan,pink,Someone did better than Player A,none-none-none,none-none-none,14,2,6760,NA
ASFFW3A9FFHPN,NA,royalblue,lavender,brown,Someone did better than Player C,none-half-all,all-half-none,17,6,4225,NA
ASFFW3A9FFHPN,NA,midnight,darkorange,brown,No player hit none of his shots,none-none-half,half-none-none,16,2,8528,NA
ASFFW3A9FFHPN,NA,lightblue,seafoam,purple,Player B tied with Player C,half-half-half,half-half-half,19,5,4755,NA
ASFFW3A9FFHPN,NA,brown,midnight,wheat,Player C shot perfectly,half-all-all,half-all-all,18,7,3632,NA
ASFFW3A9FFHPN,NA,yellow,pink,seafoam,Player A was the star player of the round,most-none-all,most-none-all,-1,2,9220,yes
ASFFW3A9FFHPN,NA,grey,royalblue,lightorange,Player A made none of his baskets,all-none-few,all-none-few,-3,1,11485,yes
ASFFW3A9FFHPN,NA,grey,brown,purple,Player C messed up,all-all-none,all-all-none,-2,7,6799,yes
AZLZJCKLN8OUT,NA,lavender,wheat,midnight,Exactly one player hit some of his shots,half-half-half,half-half-half,24,1,5200,NA
AZLZJCKLN8OUT,NA,lightorange,midnight,lavender,We have a clear loser,none-half-all,all-none-half,25,7,4281,NA
AZLZJCKLN8OUT,NA,wheat,lightblue,grey,Player A shot perfectly,all-all-all,all-all-all,26,7,4131,NA
AZLZJCKLN8OUT,NA,midnight,seafoam,lavender,Exactly one player hit none of his shots,none-half-half,none-half-half,27,7,7562,NA
AZLZJCKLN8OUT,NA,wheat,seafoam,lavender,Player B tied with Player C,half-all-all,half-all-all,20,7,5194,NA
AZLZJCKLN8OUT,NA,grey,midnight,lightorange,Someone did better than Player C,none-half-half,half-half-none,21,7,4814,NA
AZLZJCKLN8OUT,NA,yellow,tan,brown,Someone did better than Player B,none-half-half,none-half-half,22,1,5897,NA
AZLZJCKLN8OUT,NA,royalblue,wheat,yellow,No player hit some of his shots,none-half-half,none-half-half,23,1,7418,NA
AZLZJCKLN8OUT,NA,purple,grey,darkorange,Player A tied with Player C,half-all-all,all-all-half,28,1,9473,NA
AZLZJCKLN8OUT,NA,tan,yellow,brown,Every player hit none of his shots,none-none-all,none-none-all,1,2,9929,NA
AZLZJCKLN8OUT,NA,tan,lavender,seafoam,Player A made no shots,half-half-half,half-half-half,0,2,12915,NA
AZLZJCKLN8OUT,NA,pink,lavender,royalblue,No player hit all of his shots,half-half-all,all-half-half,3,2,10863,NA
AZLZJCKLN8OUT,NA,grey,lightorange,brown,Player C shot perfectly,none-half-half,none-half-half,2,1,7673,NA
AZLZJCKLN8OUT,NA,lavender,purple,lightorange,No player hit none of his shots,none-half-half,half-half-none,5,2,10536,NA
AZLZJCKLN8OUT,NA,lightblue,purple,midnight,Player C made no shots,none-none-all,none-none-all,4,1,8653,NA
AZLZJCKLN8OUT,NA,lightblue,darkorange,midnight,Most of the players made shots,half-half-all,all-half-half,7,6,7825,NA
AZLZJCKLN8OUT,NA,darkorange,lavender,lightblue,Every player hit some of his shots,half-half-half,half-half-half,6,7,7554,NA
AZLZJCKLN8OUT,NA,yellow,lavender,darkorange,We have a clear winner,none-half-half,half-half-none,9,2,12915,NA
AZLZJCKLN8OUT,NA,royalblue,grey,midnight,Player A tied with Player B,none-none-all,all-none-none,8,1,7017,NA
AZLZJCKLN8OUT,NA,tan,purple,midnight,Player B placed second,none-half-all,none-all-half,11,2,8150,NA
AZLZJCKLN8OUT,NA,yellow,lightblue,seafoam,Player C placed second,half-half-all,all-half-half,10,5,12697,NA
AZLZJCKLN8OUT,NA,grey,lightorange,seafoam,All the players are tied,all-all-all,all-all-all,13,7,6306,NA
AZLZJCKLN8OUT,NA,lightblue,lavender,yellow,Player B made no shots,half-half-all,half-half-all,12,1,5408,NA
AZLZJCKLN8OUT,NA,lavender,grey,midnight,Player A placed second,none-none-none,none-none-none,15,2,8802,NA
AZLZJCKLN8OUT,NA,midnight,tan,brown,Most of the players missed shots,none-none-all,none-none-all,14,6,8776,NA
AZLZJCKLN8OUT,NA,midnight,lavender,tan,Exactly one player hit all of his shots,half-half-half,half-half-half,17,1,9689,NA
AZLZJCKLN8OUT,NA,wheat,grey,tan,Someone did better than Player A,none-none-half,none-half-none,16,7,9627,NA
AZLZJCKLN8OUT,NA,lightblue,lavender,midnight,Every player hit all of his shots,half-all-all,all-half-all,19,2,8450,NA
AZLZJCKLN8OUT,NA,royalblue,lavender,seafoam,Player B shot perfectly,none-none-all,none-none-all,18,1,4779,NA
AZLZJCKLN8OUT,NA,midnight,yellow,brown,Player A was the star player of the round,most-none-all,most-none-all,-1,1,20422,yes
AZLZJCKLN8OUT,NA,lightorange,grey,purple,Player A made none of his baskets,all-none-few,all-none-few,-3,1,19000,yes
AZLZJCKLN8OUT,NA,yellow,wheat,darkorange,Player C messed up,all-all-none,all-all-none,-2,7,9598,yes
A2MCI9K0K5VX50,NA,brown,darkorange,royalblue,Player B placed second,none-all-all,all-all-none,24,6,5745,NA
A2MCI9K0K5VX50,NA,midnight,brown,wheat,Someone did better than Player B,half-half-all,all-half-half,25,7,4069,NA
A2MCI9K0K5VX50,NA,lavender,wheat,brown,Player C shot perfectly,none-none-half,half-none-none,26,1,4445,NA
A2MCI9K0K5VX50,NA,purple,lavender,darkorange,Exactly one player hit all of his shots,all-all-all,all-all-all,27,1,5628,NA
A2MCI9K0K5VX50,NA,grey,tan,royalblue,Player C placed second,all-all-all,all-all-all,20,6,4722,NA
A2MCI9K0K5VX50,NA,lightorange,royalblue,purple,Every player hit none of his shots,none-none-half,half-none-none,21,1,5319,NA
A2MCI9K0K5VX50,NA,grey,seafoam,lightorange,No player hit none of his shots,half-half-half,half-half-half,22,5,11627,NA
A2MCI9K0K5VX50,NA,lightblue,brown,midnight,Player B tied with Player C,none-none-half,none-none-half,23,1,4832,NA
A2MCI9K0K5VX50,NA,lightblue,tan,lavender,Someone did better than Player A,none-none-all,none-all-none,28,6,4015,NA
A2MCI9K0K5VX50,NA,grey,pink,yellow,Player A tied with Player B,half-half-all,half-half-all,1,7,6839,NA
A2MCI9K0K5VX50,NA,lightblue,pink,lavender,Most of the players made shots,half-half-half,half-half-half,0,5,7338,NA
A2MCI9K0K5VX50,NA,lightorange,wheat,tan,Player A placed second,none-none-half,half-none-none,3,1,9336,NA
A2MCI9K0K5VX50,NA,wheat,royalblue,grey,Every player hit all of his shots,none-half-half,none-half-half,2,1,5881,NA
A2MCI9K0K5VX50,NA,midnight,wheat,grey,Exactly one player hit some of his shots,none-none-all,all-none-none,5,6,7048,NA
A2MCI9K0K5VX50,NA,pink,brown,seafoam,Most of the players missed shots,half-all-all,half-all-all,4,2,6552,NA
A2MCI9K0K5VX50,NA,purple,yellow,darkorange,No player hit all of his shots,half-all-all,half-all-all,7,1,5336,NA
A2MCI9K0K5VX50,NA,royalblue,grey,brown,Player A tied with Player C,none-none-none,none-none-none,6,6,8244,NA
A2MCI9K0K5VX50,NA,lavender,lightblue,wheat,Player C made no shots,none-none-all,all-none-none,9,7,3981,NA
A2MCI9K0K5VX50,NA,royalblue,pink,lightorange,Exactly one player hit none of his shots,none-half-all,all-none-half,8,7,4360,NA
A2MCI9K0K5VX50,NA,wheat,tan,yellow,Someone did better than Player C,half-half-half,half-half-half,11,2,5729,NA
A2MCI9K0K5VX50,NA,wheat,lavender,midnight,We have a clear winner,half-half-all,all-half-half,10,7,4740,NA
A2MCI9K0K5VX50,NA,lightorange,midnight,tan,Every player hit some of his shots,none-half-all,half-all-none,13,1,5674,NA
A2MCI9K0K5VX50,NA,grey,purple,wheat,We have a clear loser,all-all-all,all-all-all,12,1,4477,NA
A2MCI9K0K5VX50,NA,purple,grey,seafoam,Player B shot perfectly,none-half-all,all-half-none,15,1,5348,NA
A2MCI9K0K5VX50,NA,purple,midnight,grey,Player A made no shots,all-all-all,all-all-all,14,1,5505,NA
A2MCI9K0K5VX50,NA,darkorange,brown,grey,Player B made no shots,half-half-all,all-half-half,17,1,5830,NA
A2MCI9K0K5VX50,NA,grey,lightblue,brown,All the players are tied,none-all-all,none-all-all,16,2,4907,NA
A2MCI9K0K5VX50,NA,lightorange,pink,darkorange,Player A shot perfectly,half-all-all,all-all-half,19,7,4490,NA
A2MCI9K0K5VX50,NA,midnight,royalblue,lightblue,No player hit some of his shots,none-half-all,half-none-all,18,1,6672,NA
A2MCI9K0K5VX50,NA,midnight,royalblue,lightblue,Player A was the star player of the round,most-none-all,most-none-all,-1,1,10165,yes
A2MCI9K0K5VX50,NA,midnight,tan,royalblue,Player A made none of his baskets,all-none-few,all-none-few,-3,1,18530,yes
A2MCI9K0K5VX50,NA,pink,tan,brown,Player C messed up,all-all-none,all-all-none,-2,7,7203,yes
A2XXE5GZ5IL2DN,English,seafoam,grey,midnight,Most of the players made shots,none-none-half,half-none-none,24,1,3966,NA
A2XXE5GZ5IL2DN,English,midnight,wheat,lightorange,We have a clear loser,half-half-all,all-half-half,25,2,5519,NA
A2XXE5GZ5IL2DN,English,darkorange,purple,lightblue,Player C placed second,half-half-half,half-half-half,26,1,4470,NA
A2XXE5GZ5IL2DN,English,royalblue,wheat,tan,Someone did better than Player C,none-none-none,none-none-none,27,1,3654,NA
A2XXE5GZ5IL2DN,English,wheat,grey,pink,No player hit none of his shots,all-all-all,all-all-all,20,5,19654,NA
A2XXE5GZ5IL2DN,English,tan,lightblue,yellow,Player A tied with Player C,none-half-half,half-none-half,21,7,7670,NA
A2XXE5GZ5IL2DN,English,grey,lightorange,royalblue,Player A shot perfectly,none-half-all,half-all-none,22,1,4766,NA
A2XXE5GZ5IL2DN,English,darkorange,midnight,lavender,Every player hit some of his shots,half-half-all,half-half-all,23,7,5270,NA
A2XXE5GZ5IL2DN,English,brown,seafoam,lightorange,All the players are tied,none-all-all,none-all-all,28,1,3182,NA
A2XXE5GZ5IL2DN,English,purple,pink,wheat,Player B placed second,half-all-all,half-all-all,1,3,17957,NA
A2XXE5GZ5IL2DN,English,royalblue,lightblue,yellow,Exactly one player hit some of his shots,half-half-half,half-half-half,0,1,9232,NA
A2XXE5GZ5IL2DN,English,lightorange,lavender,yellow,Player A placed second,none-none-all,none-all-none,3,3,8222,NA
A2XXE5GZ5IL2DN,English,purple,pink,lavender,Player B shot perfectly,none-none-half,none-none-half,2,1,5438,NA
A2XXE5GZ5IL2DN,English,lightorange,yellow,seafoam,Every player hit none of his shots,half-half-all,all-half-half,5,1,5773,NA
A2XXE5GZ5IL2DN,English,midnight,yellow,brown,Player A made no shots,none-half-half,half-none-half,4,1,3845,NA
A2XXE5GZ5IL2DN,English,brown,royalblue,pink,No player hit some of his shots,none-half-half,none-half-half,7,1,10270,NA
A2XXE5GZ5IL2DN,English,yellow,lightorange,seafoam,Someone did better than Player B,none-half-all,none-all-half,6,1,6591,NA
A2XXE5GZ5IL2DN,English,purple,darkorange,tan,Exactly one player hit none of his shots,none-none-all,none-none-all,9,1,6742,NA
A2XXE5GZ5IL2DN,English,midnight,lightblue,royalblue,Exactly one player hit all of his shots,half-half-half,half-half-half,8,1,5758,NA
A2XXE5GZ5IL2DN,English,royalblue,yellow,seafoam,Player B made no shots,half-half-all,half-half-all,11,1,3958,NA
A2XXE5GZ5IL2DN,English,lavender,royalblue,lightorange,Someone did better than Player A,all-all-all,all-all-all,10,1,8015,NA
A2XXE5GZ5IL2DN,English,lightblue,royalblue,yellow,We have a clear winner,all-all-all,all-all-all,13,1,4711,NA
A2XXE5GZ5IL2DN,English,brown,lightorange,yellow,Player C shot perfectly,none-half-half,half-half-none,12,1,4349,NA
A2XXE5GZ5IL2DN,English,wheat,pink,lightblue,Every player hit all of his shots,none-half-all,none-half-all,15,1,4270,NA
A2XXE5GZ5IL2DN,English,lavender,brown,royalblue,Player A tied with Player B,none-half-all,half-all-none,14,1,5031,NA
A2XXE5GZ5IL2DN,English,grey,lightorange,darkorange,Most of the players missed shots,half-half-all,half-all-half,17,6,7079,NA
A2XXE5GZ5IL2DN,English,lightorange,royalblue,wheat,No player hit all of his shots,half-half-all,half-half-all,16,1,5446,NA
A2XXE5GZ5IL2DN,English,wheat,yellow,tan,Player B tied with Player C,none-all-all,none-all-all,19,7,5093,NA
A2XXE5GZ5IL2DN,English,wheat,brown,darkorange,Player C made no shots,half-half-half,half-half-half,18,1,3550,NA
A2XXE5GZ5IL2DN,English,lavender,lightblue,yellow,Player A was the star player of the round,most-none-all,most-none-all,-1,1,13142,yes
A2XXE5GZ5IL2DN,English,brown,lavender,pink,Player A made none of his baskets,all-none-few,all-none-few,-3,1,16524,yes
A2XXE5GZ5IL2DN,English,royalblue,lightorange,grey,Player C messed up,all-all-none,all-all-none,-2,7,8635,yes
A22LZ62E0UC4VL,English,brown,pink,purple,No player hit all of his shots,none-half-half,none-half-half,24,7,5479,NA
A22LZ62E0UC4VL,English,lavender,purple,brown,Player A placed second,none-none-all,none-all-none,25,5,4239,NA
A22LZ62E0UC4VL,English,lightblue,lavender,seafoam,Player C made no shots,none-half-all,none-all-half,26,1,5151,NA
A22LZ62E0UC4VL,English,midnight,wheat,grey,Player C placed second,none-none-none,none-none-none,27,1,3614,NA
A22LZ62E0UC4VL,English,lightblue,royalblue,grey,We have a clear loser,half-half-all,all-half-half,20,1,3368,NA
A22LZ62E0UC4VL,English,purple,pink,seafoam,Player A tied with Player C,half-half-all,all-half-half,21,1,2477,NA
A22LZ62E0UC4VL,English,wheat,royalblue,yellow,Someone did better than Player C,none-none-all,none-all-none,22,7,3720,NA
A22LZ62E0UC4VL,English,royalblue,seafoam,tan,Player B placed second,half-all-all,half-all-all,23,1,4606,NA
A22LZ62E0UC4VL,English,pink,seafoam,purple,Player A tied with Player B,half-half-half,half-half-half,28,7,6167,NA
A22LZ62E0UC4VL,English,wheat,royalblue,lightblue,Player B tied with Player C,none-all-all,none-all-all,1,7,6245,NA
A22LZ62E0UC4VL,English,midnight,grey,darkorange,Every player hit some of his shots,all-all-all,all-all-all,0,7,5785,NA
A22LZ62E0UC4VL,English,tan,yellow,purple,Most of the players made shots,half-half-all,half-all-half,3,7,9814,NA
A22LZ62E0UC4VL,English,midnight,purple,darkorange,Exactly one player hit some of his shots,none-none-none,none-none-none,2,1,6142,NA
A22LZ62E0UC4VL,English,lavender,wheat,yellow,Exactly one player hit all of his shots,none-half-half,half-none-half,5,1,7118,NA
A22LZ62E0UC4VL,English,tan,lavender,pink,Every player hit all of his shots,none-none-half,none-none-half,4,1,5479,NA
A22LZ62E0UC4VL,English,grey,purple,midnight,No player hit some of his shots,none-none-half,none-half-none,7,1,6614,NA
A22LZ62E0UC4VL,English,brown,seafoam,darkorange,Someone did better than Player B,none-none-all,all-none-none,6,7,5063,NA
A22LZ62E0UC4VL,English,tan,lightorange,seafoam,Player A shot perfectly,none-none-half,half-none-none,9,1,1975,NA
A22LZ62E0UC4VL,English,lightblue,yellow,brown,Player A made no shots,half-half-all,half-half-all,8,1,4239,NA
A22LZ62E0UC4VL,English,royalblue,lightorange,lavender,Every player hit none of his shots,none-none-all,none-all-none,11,1,2959,NA
A22LZ62E0UC4VL,English,lightblue,wheat,royalblue,We have a clear winner,half-half-half,half-half-half,10,1,2182,NA
A22LZ62E0UC4VL,English,pink,lavender,grey,Most of the players missed shots,half-half-half,half-half-half,13,1,2846,NA
A22LZ62E0UC4VL,English,lavender,tan,wheat,Exactly one player hit none of his shots,all-all-all,all-all-all,12,1,2871,NA
A22LZ62E0UC4VL,English,lightblue,brown,pink,Player B made no shots,none-half-half,half-half-none,15,1,4510,NA
A22LZ62E0UC4VL,English,wheat,tan,lightblue,No player hit none of his shots,half-half-all,half-all-half,14,1,4224,NA
A22LZ62E0UC4VL,English,lightorange,wheat,yellow,All the players are tied,none-half-half,none-half-half,17,1,3382,NA
A22LZ62E0UC4VL,English,midnight,seafoam,grey,Player C shot perfectly,all-all-all,all-all-all,16,7,2758,NA
A22LZ62E0UC4VL,English,pink,tan,lavender,Player B shot perfectly,half-all-all,half-all-all,19,7,2079,NA
A22LZ62E0UC4VL,English,royalblue,wheat,darkorange,Someone did better than Player A,none-none-none,none-none-none,18,1,1807,NA
A22LZ62E0UC4VL,English,lightblue,pink,wheat,Player A was the star player of the round,most-none-all,most-none-all,-1,1,23574,yes
A22LZ62E0UC4VL,English,pink,brown,darkorange,Player A made none of his baskets,all-none-few,all-none-few,-3,1,14837,yes
A22LZ62E0UC4VL,English,wheat,tan,seafoam,Player C messed up,all-all-none,all-all-none,-2,7,5940,yes
A3JFM7PRPF0G5H,NA,tan,lavender,grey,Player A placed second,half-all-all,half-all-all,24,1,3826,NA
A3JFM7PRPF0G5H,NA,midnight,royalblue,brown,Player B shot perfectly,all-all-all,all-all-all,25,7,3586,NA
A3JFM7PRPF0G5H,NA,purple,pink,tan,No player hit all of his shots,none-half-all,all-half-none,26,1,3040,NA
A3JFM7PRPF0G5H,NA,darkorange,seafoam,wheat,Most of the players missed shots,none-half-half,half-half-none,27,6,9359,NA
A3JFM7PRPF0G5H,NA,grey,midnight,brown,All the players are tied,none-none-half,half-none-none,20,1,3500,NA
A3JFM7PRPF0G5H,NA,lightorange,grey,darkorange,Player B placed second,none-half-all,all-none-half,21,1,2724,NA
A3JFM7PRPF0G5H,NA,lavender,wheat,darkorange,We have a clear loser,none-half-all,half-none-all,22,7,2937,NA
A3JFM7PRPF0G5H,NA,grey,lavender,yellow,Player C placed second,none-all-all,none-all-all,23,3,3967,NA
A3JFM7PRPF0G5H,NA,seafoam,brown,grey,No player hit none of his shots,none-none-all,all-none-none,28,1,3301,NA
A3JFM7PRPF0G5H,NA,seafoam,wheat,royalblue,Player B made no shots,none-none-none,none-none-none,1,7,3926,NA
A3JFM7PRPF0G5H,NA,darkorange,purple,lightblue,We have a clear winner,none-none-none,none-none-none,0,1,6033,NA
A3JFM7PRPF0G5H,NA,royalblue,purple,lightblue,Player A tied with Player C,none-none-all,none-none-all,3,1,5590,NA
A3JFM7PRPF0G5H,NA,tan,brown,lavender,Player C shot perfectly,half-half-half,half-half-half,2,1,3885,NA
A3JFM7PRPF0G5H,NA,brown,pink,lightblue,Player B tied with Player C,none-none-half,half-none-none,5,7,3195,NA
A3JFM7PRPF0G5H,NA,grey,darkorange,purple,Every player hit none of his shots,none-half-half,half-none-half,4,1,5114,NA
A3JFM7PRPF0G5H,NA,grey,darkorange,seafoam,No player hit some of his shots,none-all-all,all-none-all,7,7,8515,NA
A3JFM7PRPF0G5H,NA,darkorange,lavender,midnight,Player A shot perfectly,none-none-none,none-none-none,6,1,4633,NA
A3JFM7PRPF0G5H,NA,midnight,wheat,tan,Player C made no shots,all-all-all,all-all-all,9,1,4271,NA
A3JFM7PRPF0G5H,NA,yellow,darkorange,seafoam,Someone did better than Player C,none-none-none,none-none-none,8,1,4313,NA
A3JFM7PRPF0G5H,NA,brown,pink,midnight,Every player hit all of his shots,half-all-all,all-all-half,11,1,3169,NA
A3JFM7PRPF0G5H,NA,lightblue,purple,grey,Someone did better than Player A,none-half-half,half-half-none,10,1,6306,NA
A3JFM7PRPF0G5H,NA,brown,royalblue,grey,Most of the players made shots,all-all-all,all-all-all,13,4,6592,NA
A3JFM7PRPF0G5H,NA,midnight,wheat,lightblue,Exactly one player hit none of his shots,none-none-half,none-half-none,12,1,3217,NA
A3JFM7PRPF0G5H,NA,grey,midnight,lightblue,Someone did better than Player B,all-all-all,all-all-all,15,1,4285,NA
A3JFM7PRPF0G5H,NA,royalblue,midnight,brown,Player A tied with Player B,none-half-half,half-none-half,14,1,5085,NA
A3JFM7PRPF0G5H,NA,darkorange,lavender,pink,Exactly one player hit some of his shots,none-half-half,half-none-half,17,1,3696,NA
A3JFM7PRPF0G5H,NA,pink,wheat,lightorange,Every player hit some of his shots,none-all-all,none-all-all,16,1,3134,NA
A3JFM7PRPF0G5H,NA,midnight,purple,lavender,Exactly one player hit all of his shots,none-half-all,none-half-all,19,7,6555,NA
A3JFM7PRPF0G5H,NA,grey,lavender,brown,Player A made no shots,half-half-half,half-half-half,18,1,3185,NA
A3JFM7PRPF0G5H,NA,lightorange,pink,purple,Player A was the star player of the round,most-none-all,most-none-all,-1,2,8218,yes
A3JFM7PRPF0G5H,NA,tan,grey,brown,Player A made none of his baskets,all-none-few,all-none-few,-3,1,10098,yes
A3JFM7PRPF0G5H,NA,royalblue,yellow,grey,Player C messed up,all-all-none,all-all-none,-2,7,5284,yes
A15NH461BKAYCX,NA,wheat,lightblue,brown,Player A placed second,none-half-all,half-all-none,24,7,6281,NA
A15NH461BKAYCX,NA,pink,lavender,grey,Player B shot perfectly,none-all-all,all-all-none,25,7,3502,NA
A15NH461BKAYCX,NA,brown,lavender,darkorange,Player B tied with Player C,none-half-all,all-half-none,26,1,5829,NA
A15NH461BKAYCX,NA,lavender,grey,tan,Player C made no shots,none-none-none,none-none-none,27,7,4902,NA
A15NH461BKAYCX,NA,seafoam,grey,lightblue,Someone did better than Player C,half-half-all,all-half-half,20,7,7240,NA
A15NH461BKAYCX,NA,darkorange,royalblue,brown,Every player hit some of his shots,none-half-half,half-none-half,21,1,3703,NA
A15NH461BKAYCX,NA,darkorange,lightorange,midnight,No player hit all of his shots,half-half-all,all-half-half,22,1,3832,NA
A15NH461BKAYCX,NA,lightblue,grey,seafoam,Someone did better than Player B,half-half-half,half-half-half,23,1,5919,NA
A15NH461BKAYCX,NA,royalblue,tan,lightorange,Every player hit all of his shots,none-half-half,none-half-half,28,1,3993,NA
A15NH461BKAYCX,NA,wheat,tan,brown,Exactly one player hit some of his shots,half-half-half,half-half-half,1,1,6190,NA
A15NH461BKAYCX,NA,brown,wheat,yellow,Every player hit none of his shots,none-all-all,none-all-all,0,1,7544,NA
A15NH461BKAYCX,NA,midnight,brown,purple,Player A made no shots,none-none-none,none-none-none,3,7,6350,NA
A15NH461BKAYCX,NA,seafoam,pink,wheat,Most of the players made shots,none-half-all,none-half-all,2,1,5838,NA
A15NH461BKAYCX,NA,lavender,grey,lightblue,Player C placed second,none-none-none,none-none-none,5,1,7790,NA
A15NH461BKAYCX,NA,lightblue,seafoam,royalblue,Player B made no shots,none-half-all,none-all-half,4,1,4521,NA
A15NH461BKAYCX,NA,darkorange,lavender,seafoam,We have a clear loser,none-half-all,none-all-half,7,7,7597,NA
A15NH461BKAYCX,NA,purple,seafoam,royalblue,Player B placed second,none-half-half,none-half-half,6,4,10278,NA
A15NH461BKAYCX,NA,yellow,seafoam,brown,No player hit none of his shots,none-none-half,half-none-none,9,1,10392,NA
A15NH461BKAYCX,NA,lightblue,purple,lavender,Someone did better than Player A,half-half-all,half-half-all,8,7,8016,NA
A15NH461BKAYCX,NA,seafoam,darkorange,yellow,All the players are tied,none-half-all,half-none-all,11,1,3386,NA
A15NH461BKAYCX,NA,darkorange,royalblue,purple,Player A shot perfectly,half-all-all,all-all-half,10,7,3158,NA
A15NH461BKAYCX,NA,pink,lightblue,lavender,Exactly one player hit all of his shots,none-half-all,none-all-half,13,7,4871,NA
A15NH461BKAYCX,NA,pink,midnight,lightblue,Player A tied with Player C,none-all-all,none-all-all,12,1,6767,NA
A15NH461BKAYCX,NA,midnight,lightblue,grey,Player C shot perfectly,none-none-none,none-none-none,15,1,5453,NA
A15NH461BKAYCX,NA,yellow,brown,grey,No player hit some of his shots,none-none-all,all-none-none,14,1,10498,NA
A15NH461BKAYCX,NA,lightorange,wheat,royalblue,Exactly one player hit none of his shots,none-none-none,none-none-none,17,1,6207,NA
A15NH461BKAYCX,NA,midnight,lightblue,pink,Player A tied with Player B,none-half-half,none-half-half,16,1,5486,NA
A15NH461BKAYCX,NA,tan,lightorange,lavender,Most of the players missed shots,half-all-all,half-all-all,19,1,5343,NA
A15NH461BKAYCX,NA,pink,midnight,lightblue,We have a clear winner,half-half-half,half-half-half,18,1,5937,NA
A15NH461BKAYCX,NA,lightblue,midnight,royalblue,Player A was the star player of the round,most-none-all,most-none-all,-1,1,8653,yes
A15NH461BKAYCX,NA,lightblue,purple,brown,Player A made none of his baskets,all-none-few,all-none-few,-3,1,10063,yes
A15NH461BKAYCX,NA,tan,brown,lightorange,Player C messed up,all-all-none,all-all-none,-2,7,8485,yes
ACOKFBC75D5OR,English,grey,lavender,seafoam,We have a clear loser,half-all-all,all-half-all,24,7,4574,NA
ACOKFBC75D5OR,English,pink,midnight,lightorange,Player B tied with Player C,half-all-all,all-half-all,25,1,4447,NA
ACOKFBC75D5OR,English,tan,darkorange,yellow,Player A made no shots,half-half-half,half-half-half,26,1,2701,NA
ACOKFBC75D5OR,English,lightblue,pink,midnight,Player A shot perfectly,half-all-all,all-half-all,27,7,3437,NA
ACOKFBC75D5OR,English,yellow,midnight,royalblue,Most of the players made shots,all-all-all,all-all-all,20,5,5887,NA
ACOKFBC75D5OR,English,wheat,tan,pink,No player hit some of his shots,none-all-all,all-none-all,21,1,4285,NA
ACOKFBC75D5OR,English,lightblue,brown,wheat,Player C placed second,half-all-all,half-all-all,22,1,2880,NA
ACOKFBC75D5OR,English,lightblue,royalblue,purple,Player C shot perfectly,none-all-all,all-all-none,23,1,2059,NA
ACOKFBC75D5OR,English,purple,lightblue,wheat,No player hit all of his shots,half-half-all,half-all-half,28,1,2726,NA
ACOKFBC75D5OR,English,seafoam,pink,lightorange,Every player hit none of his shots,none-none-none,none-none-none,1,7,3001,NA
ACOKFBC75D5OR,English,midnight,yellow,brown,Every player hit some of his shots,none-none-half,half-none-none,0,1,3741,NA
ACOKFBC75D5OR,English,seafoam,yellow,purple,Exactly one player hit some of his shots,all-all-all,all-all-all,3,1,3981,NA
ACOKFBC75D5OR,English,purple,lavender,lightblue,Player A tied with Player C,none-none-half,none-half-none,2,5,9420,NA
ACOKFBC75D5OR,English,wheat,yellow,lightblue,No player hit none of his shots,half-half-all,half-all-half,5,7,3629,NA
ACOKFBC75D5OR,English,tan,darkorange,purple,Most of the players missed shots,half-all-all,half-all-all,4,1,4366,NA
ACOKFBC75D5OR,English,pink,royalblue,yellow,Player B made no shots,none-none-none,none-none-none,7,7,3781,NA
ACOKFBC75D5OR,English,pink,purple,midnight,Player A tied with Player B,all-all-all,all-all-all,6,5,6256,NA
ACOKFBC75D5OR,English,lavender,seafoam,midnight,Exactly one player hit all of his shots,half-all-all,half-all-all,9,1,2806,NA
ACOKFBC75D5OR,English,purple,pink,lavender,Player B shot perfectly,none-half-all,all-none-half,8,1,4702,NA
ACOKFBC75D5OR,English,wheat,seafoam,midnight,Someone did better than Player B,none-none-none,none-none-none,11,1,3460,NA
ACOKFBC75D5OR,English,darkorange,grey,lavender,Player B placed second,half-half-all,half-all-half,10,1,4648,NA
ACOKFBC75D5OR,English,lavender,tan,lightorange,We have a clear winner,half-all-all,half-all-all,13,1,2270,NA
ACOKFBC75D5OR,English,lightblue,royalblue,lavender,Player A placed second,half-half-half,half-half-half,12,1,3711,NA
ACOKFBC75D5OR,English,brown,grey,yellow,Someone did better than Player C,none-none-none,none-none-none,15,1,2359,NA
ACOKFBC75D5OR,English,lightorange,grey,royalblue,Every player hit all of his shots,none-none-half,none-none-half,14,1,3253,NA
ACOKFBC75D5OR,English,yellow,midnight,lightblue,Player C made no shots,half-half-all,half-half-all,17,1,3902,NA
ACOKFBC75D5OR,English,brown,lightorange,wheat,Someone did better than Player A,all-all-all,all-all-all,16,1,2988,NA
ACOKFBC75D5OR,English,lightblue,seafoam,pink,Exactly one player hit none of his shots,all-all-all,all-all-all,19,1,2870,NA
ACOKFBC75D5OR,English,purple,royalblue,wheat,All the players are tied,none-none-half,none-half-none,18,1,3141,NA
ACOKFBC75D5OR,English,lavender,seafoam,yellow,Player A was the star player of the round,most-none-all,most-none-all,-1,1,6230,yes
ACOKFBC75D5OR,English,royalblue,wheat,brown,Player A made none of his baskets,all-none-few,all-none-few,-3,1,10461,yes
ACOKFBC75D5OR,English,grey,lavender,lightblue,Player C messed up,all-all-none,all-all-none,-2,7,6197,yes
A3I30I5FLRFZTL,English,royalblue,wheat,brown,No player hit none of his shots,none-half-all,all-none-half,24,6,4756,NA
A3I30I5FLRFZTL,English,brown,royalblue,pink,Player B placed second,all-all-all,all-all-all,25,2,5598,NA
A3I30I5FLRFZTL,English,yellow,lightblue,midnight,Player A placed second,none-all-all,all-all-none,26,2,3020,NA
A3I30I5FLRFZTL,English,lightblue,midnight,purple,Exactly one player hit some of his shots,none-none-none,none-none-none,27,1,4685,NA
A3I30I5FLRFZTL,English,lightblue,pink,tan,Player B shot perfectly,half-half-half,half-half-half,20,2,3553,NA
A3I30I5FLRFZTL,English,tan,lightblue,midnight,Player A tied with Player B,none-all-all,all-all-none,21,7,3007,NA
A3I30I5FLRFZTL,English,lightblue,yellow,tan,Player B made no shots,none-half-half,half-none-half,22,7,2853,NA
A3I30I5FLRFZTL,English,seafoam,purple,pink,Player B tied with Player C,half-all-all,all-half-all,23,1,4795,NA
A3I30I5FLRFZTL,English,yellow,purple,royalblue,We have a clear winner,half-half-half,half-half-half,28,1,2422,NA
A3I30I5FLRFZTL,English,midnight,pink,darkorange,Player A made no shots,none-half-all,all-none-half,1,1,6652,NA
A3I30I5FLRFZTL,English,seafoam,lightorange,grey,Player A shot perfectly,none-half-all,half-none-all,0,1,4761,NA
A3I30I5FLRFZTL,English,lightblue,lavender,grey,Most of the players missed shots,none-none-none,none-none-none,3,5,3418,NA
A3I30I5FLRFZTL,English,lightorange,pink,seafoam,No player hit all of his shots,none-none-none,none-none-none,2,7,2801,NA
A3I30I5FLRFZTL,English,tan,wheat,darkorange,Someone did better than Player A,none-half-all,half-none-all,5,6,6260,NA
A3I30I5FLRFZTL,English,seafoam,royalblue,midnight,Every player hit none of his shots,none-half-all,half-none-all,4,1,4116,NA
A3I30I5FLRFZTL,English,yellow,royalblue,brown,We have a clear loser,half-half-all,half-all-half,7,5,3848,NA
A3I30I5FLRFZTL,English,wheat,yellow,tan,Player C shot perfectly,half-half-half,half-half-half,6,1,3698,NA
A3I30I5FLRFZTL,English,tan,darkorange,lavender,Every player hit some of his shots,none-half-all,none-all-half,9,2,4397,NA
A3I30I5FLRFZTL,English,purple,pink,yellow,Every player hit all of his shots,none-none-none,none-none-none,8,1,3876,NA
A3I30I5FLRFZTL,English,darkorange,seafoam,lavender,Player C made no shots,none-half-half,none-half-half,11,1,5346,NA
A3I30I5FLRFZTL,English,midnight,seafoam,tan,Someone did better than Player C,none-all-all,none-all-all,10,1,5425,NA
A3I30I5FLRFZTL,English,lavender,wheat,midnight,Player C placed second,none-all-all,all-all-none,13,1,5820,NA
A3I30I5FLRFZTL,English,pink,midnight,grey,Most of the players made shots,none-none-none,none-none-none,12,1,2522,NA
A3I30I5FLRFZTL,English,lavender,lightblue,grey,Exactly one player hit none of his shots,none-all-all,none-all-all,15,6,7955,NA
A3I30I5FLRFZTL,English,wheat,royalblue,grey,All the players are tied,none-all-all,all-all-none,14,1,2675,NA
A3I30I5FLRFZTL,English,brown,lightblue,darkorange,Player A tied with Player C,all-all-all,all-all-all,17,6,4171,NA
A3I30I5FLRFZTL,English,tan,lightblue,pink,Exactly one player hit all of his shots,none-half-all,none-all-half,16,6,4550,NA
A3I30I5FLRFZTL,English,midnight,royalblue,lightblue,No player hit some of his shots,none-all-all,all-all-none,19,5,5549,NA
A3I30I5FLRFZTL,English,brown,royalblue,pink,Someone did better than Player B,none-none-half,half-none-none,18,6,5114,NA
A3I30I5FLRFZTL,English,midnight,brown,seafoam,Player A was the star player of the round,most-none-all,most-none-all,-1,2,6664,yes
A3I30I5FLRFZTL,English,lightblue,lightorange,purple,Player A made none of his baskets,all-none-few,all-none-few,-3,2,9275,yes
A3I30I5FLRFZTL,English,tan,yellow,darkorange,Player C messed up,all-all-none,all-all-none,-2,7,15308,no
A3J5QXXJUBFJTX,NA,purple,lightorange,brown,Exactly one player hit none of his shots,none-none-half,half-none-none,24,1,4775,NA
A3J5QXXJUBFJTX,NA,wheat,lightblue,royalblue,Exactly one player hit all of his shots,none-all-all,none-all-all,25,1,4977,NA
A3J5QXXJUBFJTX,NA,seafoam,tan,wheat,Player A tied with Player C,none-none-all,all-none-none,26,1,5788,NA
A3J5QXXJUBFJTX,NA,midnight,purple,yellow,Player B shot perfectly,half-half-all,all-half-half,27,1,4114,NA
A3J5QXXJUBFJTX,NA,darkorange,lavender,grey,Someone did better than Player C,half-half-half,half-half-half,20,1,4859,NA
A3J5QXXJUBFJTX,NA,royalblue,seafoam,wheat,Player A shot perfectly,half-half-half,half-half-half,21,1,3827,NA
A3J5QXXJUBFJTX,NA,pink,wheat,royalblue,Player A placed second,half-all-all,all-all-half,22,1,3709,NA
A3J5QXXJUBFJTX,NA,darkorange,wheat,purple,Most of the players missed shots,none-half-half,half-half-none,23,7,4370,NA
A3J5QXXJUBFJTX,NA,royalblue,brown,lavender,Player A tied with Player B,none-all-all,all-none-all,28,1,172222,NA
A3J5QXXJUBFJTX,NA,lightblue,midnight,royalblue,Player C made no shots,half-half-all,half-half-all,1,1,3519,NA
A3J5QXXJUBFJTX,NA,lightorange,tan,midnight,Every player hit all of his shots,half-half-all,half-half-all,0,1,4881,NA
A3J5QXXJUBFJTX,NA,lightorange,seafoam,darkorange,Exactly one player hit some of his shots,half-all-all,half-all-all,3,7,5575,NA
A3J5QXXJUBFJTX,NA,lightblue,darkorange,wheat,We have a clear loser,half-half-half,half-half-half,2,1,2933,NA
A3J5QXXJUBFJTX,NA,pink,grey,tan,Player A made no shots,none-half-all,none-all-half,5,7,3718,NA
A3J5QXXJUBFJTX,NA,yellow,seafoam,purple,Most of the players made shots,none-none-all,all-none-none,4,1,3013,NA
A3J5QXXJUBFJTX,NA,midnight,lightblue,darkorange,Every player hit none of his shots,all-all-all,all-all-all,7,1,4614,NA
A3J5QXXJUBFJTX,NA,tan,yellow,pink,Player B placed second,none-none-all,all-none-none,6,7,4622,NA
A3J5QXXJUBFJTX,NA,tan,pink,lightblue,Someone did better than Player A,none-none-none,none-none-none,9,1,3178,NA
A3J5QXXJUBFJTX,NA,seafoam,yellow,royalblue,Player C placed second,none-none-none,none-none-none,8,1,5461,NA
A3J5QXXJUBFJTX,NA,seafoam,darkorange,midnight,We have a clear winner,none-half-all,half-none-all,11,7,3653,NA
A3J5QXXJUBFJTX,NA,wheat,purple,darkorange,No player hit none of his shots,none-none-half,half-none-none,10,1,10312,NA
A3J5QXXJUBFJTX,NA,lavender,pink,lightblue,Someone did better than Player B,none-none-half,none-none-half,13,7,3344,NA
A3J5QXXJUBFJTX,NA,grey,purple,lavender,Player C shot perfectly,none-all-all,none-all-all,12,7,3203,NA
A3J5QXXJUBFJTX,NA,seafoam,pink,lightblue,No player hit all of his shots,all-all-all,all-all-all,15,1,3101,NA
A3J5QXXJUBFJTX,NA,wheat,darkorange,lavender,All the players are tied,half-half-all,half-all-half,14,1,2894,NA
A3J5QXXJUBFJTX,NA,yellow,lavender,tan,Every player hit some of his shots,none-half-half,half-half-none,17,1,2525,NA
A3J5QXXJUBFJTX,NA,midnight,tan,lightblue,Player B tied with Player C,none-none-all,none-all-none,16,1,6263,NA
A3J5QXXJUBFJTX,NA,lightblue,tan,purple,No player hit some of his shots,none-none-none,none-none-none,19,7,4637,NA
A3J5QXXJUBFJTX,NA,lightblue,purple,yellow,Player B made no shots,half-all-all,half-all-all,18,1,2643,NA
A3J5QXXJUBFJTX,NA,midnight,royalblue,tan,Player A was the star player of the round,most-none-all,most-none-all,-1,1,7496,yes
A3J5QXXJUBFJTX,NA,lightblue,midnight,darkorange,Player A made none of his baskets,all-none-few,all-none-few,-3,1,12905,yes
A3J5QXXJUBFJTX,NA,lavender,brown,wheat,Player C messed up,all-all-none,all-all-none,-2,7,5385,yes
A1J5RG9XR4K2V7,NA,brown,midnight,tan,Player C shot perfectly,half-all-all,half-all-all,24,7,5748,NA
A1J5RG9XR4K2V7,NA,brown,pink,seafoam,Player A tied with Player B,none-none-all,none-all-none,25,1,7720,NA
A1J5RG9XR4K2V7,NA,brown,pink,tan,Exactly one player hit some of his shots,half-half-half,half-half-half,26,1,5084,NA
A1J5RG9XR4K2V7,NA,seafoam,pink,lightblue,Someone did better than Player B,half-half-half,half-half-half,27,1,5218,NA
A1J5RG9XR4K2V7,NA,wheat,grey,yellow,All the players are tied,none-none-all,none-all-none,20,1,5970,NA
A1J5RG9XR4K2V7,NA,brown,yellow,lightorange,Player B tied with Player C,half-half-all,all-half-half,21,7,8835,NA
A1J5RG9XR4K2V7,NA,seafoam,lightorange,brown,Every player hit some of his shots,none-none-all,all-none-none,22,1,4936,NA
A1J5RG9XR4K2V7,NA,lightblue,darkorange,royalblue,No player hit all of his shots,none-none-all,none-none-all,23,1,6009,NA
A1J5RG9XR4K2V7,NA,grey,seafoam,yellow,Exactly one player hit all of his shots,all-all-all,all-all-all,28,1,4158,NA
A1J5RG9XR4K2V7,NA,lightblue,purple,tan,Most of the players missed shots,none-half-all,none-all-half,1,6,13538,NA
A1J5RG9XR4K2V7,NA,lavender,darkorange,pink,Player B shot perfectly,none-none-none,none-none-none,0,1,6752,NA
A1J5RG9XR4K2V7,NA,pink,grey,brown,Player A placed second,half-half-all,all-half-half,3,1,7210,NA
A1J5RG9XR4K2V7,NA,royalblue,tan,brown,Every player hit all of his shots,none-none-none,none-none-none,2,1,6901,NA
A1J5RG9XR4K2V7,NA,tan,lightorange,midnight,Player A shot perfectly,none-none-all,all-none-none,5,7,5323,NA
A1J5RG9XR4K2V7,NA,purple,lightorange,lightblue,Player A made no shots,none-all-all,all-all-none,4,1,6037,NA
A1J5RG9XR4K2V7,NA,wheat,midnight,tan,Most of the players made shots,all-all-all,all-all-all,7,6,8187,NA
A1J5RG9XR4K2V7,NA,lightblue,pink,yellow,Player A tied with Player C,none-half-all,all-half-none,6,1,7072,NA
A1J5RG9XR4K2V7,NA,seafoam,wheat,grey,No player hit none of his shots,half-all-all,all-all-half,9,1,22682,NA
A1J5RG9XR4K2V7,NA,lightorange,pink,brown,Someone did better than Player A,none-all-all,all-none-all,8,1,14107,NA
A1J5RG9XR4K2V7,NA,lavender,royalblue,pink,Exactly one player hit none of his shots,all-all-all,all-all-all,11,1,9048,NA
A1J5RG9XR4K2V7,NA,tan,pink,yellow,No player hit some of his shots,half-half-half,half-half-half,10,1,8006,NA
A1J5RG9XR4K2V7,NA,tan,wheat,yellow,Player B placed second,none-all-all,all-all-none,13,1,10285,NA
A1J5RG9XR4K2V7,NA,purple,lavender,wheat,Player C placed second,half-half-half,half-half-half,12,1,7618,NA
A1J5RG9XR4K2V7,NA,lightblue,darkorange,seafoam,Every player hit none of his shots,none-all-all,all-none-all,15,1,8455,NA
A1J5RG9XR4K2V7,NA,pink,midnight,brown,Player C made no shots,half-half-half,half-half-half,14,1,5483,NA
A1J5RG9XR4K2V7,NA,lightorange,lightblue,lavender,Someone did better than Player C,none-none-none,none-none-none,17,1,6402,NA
A1J5RG9XR4K2V7,NA,pink,tan,midnight,We have a clear loser,half-half-half,half-half-half,16,1,5061,NA
A1J5RG9XR4K2V7,NA,royalblue,pink,yellow,Player B made no shots,none-half-all,half-all-none,19,1,4879,NA
A1J5RG9XR4K2V7,NA,lavender,yellow,tan,We have a clear winner,none-all-all,all-none-all,18,1,11027,NA
A1J5RG9XR4K2V7,NA,lavender,royalblue,tan,Player A was the star player of the round,most-none-all,most-none-all,-1,1,9896,yes
A1J5RG9XR4K2V7,NA,darkorange,royalblue,lightorange,Player A made none of his baskets,all-none-few,all-none-few,-3,1,16322,yes
A1J5RG9XR4K2V7,NA,tan,grey,lightblue,Player C messed up,all-all-none,all-all-none,-2,7,9910,yes
A194E79BDFEZIU,NA,darkorange,lightorange,pink,Player A placed second,none-none-none,none-none-none,24,1,4532,NA
A194E79BDFEZIU,NA,grey,tan,brown,Player C shot perfectly,none-half-all,none-all-half,25,1,6073,NA
A194E79BDFEZIU,NA,yellow,seafoam,lavender,Every player hit none of his shots,all-all-all,all-all-all,26,1,3776,NA
A194E79BDFEZIU,NA,brown,wheat,darkorange,Someone did better than Player C,none-none-none,none-none-none,27,1,5060,NA
A194E79BDFEZIU,NA,lightorange,tan,darkorange,No player hit some of his shots,half-half-all,all-half-half,20,1,11509,NA
A194E79BDFEZIU,NA,royalblue,wheat,seafoam,Player A tied with Player C,none-half-all,all-half-none,21,1,6005,NA
A194E79BDFEZIU,NA,pink,seafoam,lavender,We have a clear loser,half-all-all,all-half-all,22,7,7108,NA
A194E79BDFEZIU,NA,purple,grey,tan,Exactly one player hit none of his shots,none-half-half,half-none-half,23,7,8450,NA
A194E79BDFEZIU,NA,pink,brown,grey,Someone did better than Player B,half-half-all,half-half-all,28,6,6240,NA
A194E79BDFEZIU,NA,lavender,pink,wheat,Player A tied with Player B,none-none-none,none-none-none,1,4,10979,NA
A194E79BDFEZIU,NA,lavender,brown,grey,No player hit all of his shots,half-all-all,half-all-all,0,1,8560,NA
A194E79BDFEZIU,NA,brown,royalblue,seafoam,Every player hit all of his shots,none-half-all,all-none-half,3,1,7565,NA
A194E79BDFEZIU,NA,royalblue,pink,seafoam,Player A made no shots,none-half-half,half-none-half,2,1,9751,NA
A194E79BDFEZIU,NA,lavender,darkorange,royalblue,Player B made no shots,none-none-none,none-none-none,5,6,5175,NA
A194E79BDFEZIU,NA,yellow,royalblue,wheat,Exactly one player hit all of his shots,none-all-all,none-all-all,4,1,6446,NA
A194E79BDFEZIU,NA,lavender,brown,darkorange,Every player hit some of his shots,none-none-none,none-none-none,7,1,4718,NA
A194E79BDFEZIU,NA,pink,darkorange,brown,All the players are tied,none-none-all,none-all-none,6,1,5923,NA
A194E79BDFEZIU,NA,seafoam,wheat,lightorange,Most of the players made shots,half-half-half,half-half-half,9,6,9708,NA
A194E79BDFEZIU,NA,yellow,lightorange,lavender,Most of the players missed shots,all-all-all,all-all-all,8,1,4710,NA
A194E79BDFEZIU,NA,pink,yellow,brown,Player B placed second,none-half-all,half-none-all,11,1,5395,NA
A194E79BDFEZIU,NA,brown,royalblue,seafoam,Player B shot perfectly,none-none-all,none-none-all,10,1,3834,NA
A194E79BDFEZIU,NA,tan,seafoam,grey,Player B tied with Player C,none-none-half,half-none-none,13,7,9133,NA
A194E79BDFEZIU,NA,darkorange,royalblue,lightblue,We have a clear winner,all-all-all,all-all-all,12,1,5564,NA
A194E79BDFEZIU,NA,royalblue,lightblue,wheat,Player C made no shots,none-none-half,half-none-none,15,7,4855,NA
A194E79BDFEZIU,NA,purple,lavender,wheat,Player A shot perfectly,none-half-all,all-none-half,14,7,6069,NA
A194E79BDFEZIU,NA,wheat,pink,lightblue,No player hit none of his shots,none-all-all,all-all-none,17,1,6827,NA
A194E79BDFEZIU,NA,grey,pink,darkorange,Player C placed second,all-all-all,all-all-all,16,1,5201,NA
A194E79BDFEZIU,NA,lightorange,wheat,purple,Exactly one player hit some of his shots,none-none-none,none-none-none,19,1,5008,NA
A194E79BDFEZIU,NA,midnight,darkorange,tan,Someone did better than Player A,half-half-half,half-half-half,18,1,7999,NA
A194E79BDFEZIU,NA,purple,yellow,grey,Player A was the star player of the round,most-none-all,most-none-all,-1,1,13913,yes
A194E79BDFEZIU,NA,royalblue,pink,tan,Player A made none of his baskets,all-none-few,all-none-few,-3,1,15830,yes
A194E79BDFEZIU,NA,royalblue,lavender,wheat,Player C messed up,all-all-none,all-all-none,-2,7,15058,no
A10XYFXQYJKBXF,NA,wheat,darkorange,seafoam,Player C made no shots,half-all-all,all-all-half,24,7,4410,NA
A10XYFXQYJKBXF,NA,wheat,darkorange,royalblue,Most of the players missed shots,none-none-all,none-none-all,25,1,5004,NA
A10XYFXQYJKBXF,NA,pink,brown,lightorange,Player B shot perfectly,none-all-all,all-all-none,26,7,3225,NA
A10XYFXQYJKBXF,NA,seafoam,midnight,brown,We have a clear winner,none-half-all,half-all-none,27,7,3516,NA
A10XYFXQYJKBXF,NA,purple,tan,royalblue,No player hit none of his shots,half-half-half,half-half-half,20,1,4877,NA
A10XYFXQYJKBXF,NA,darkorange,tan,brown,Every player hit none of his shots,none-none-none,none-none-none,21,7,8131,NA
A10XYFXQYJKBXF,NA,royalblue,lavender,purple,Every player hit some of his shots,none-none-half,none-none-half,22,7,3299,NA
A10XYFXQYJKBXF,NA,purple,grey,yellow,Someone did better than Player C,none-all-all,all-all-none,23,1,3690,NA
A10XYFXQYJKBXF,NA,seafoam,midnight,yellow,Player B tied with Player C,half-half-all,half-all-half,28,7,3713,NA
A10XYFXQYJKBXF,NA,grey,royalblue,wheat,Player A tied with Player B,none-none-none,none-none-none,1,7,9269,NA
A10XYFXQYJKBXF,NA,pink,midnight,lightblue,Player B made no shots,none-all-all,all-all-none,0,1,5664,NA
A10XYFXQYJKBXF,NA,midnight,grey,royalblue,Exactly one player hit none of his shots,half-all-all,all-half-all,3,1,5221,NA
A10XYFXQYJKBXF,NA,grey,purple,pink,We have a clear loser,all-all-all,all-all-all,2,7,4871,NA
A10XYFXQYJKBXF,NA,tan,wheat,lightorange,No player hit all of his shots,none-none-none,none-none-none,5,7,4433,NA
A10XYFXQYJKBXF,NA,lightorange,pink,purple,Most of the players made shots,none-all-all,all-none-all,4,1,4334,NA
A10XYFXQYJKBXF,NA,tan,wheat,purple,No player hit some of his shots,none-none-none,none-none-none,7,1,3693,NA
A10XYFXQYJKBXF,NA,yellow,seafoam,royalblue,Player A made no shots,none-none-all,all-none-none,6,1,4075,NA
A10XYFXQYJKBXF,NA,lightorange,lavender,lightblue,Player C placed second,half-half-all,half-half-all,9,1,12325,NA
A10XYFXQYJKBXF,NA,tan,seafoam,lightorange,Exactly one player hit all of his shots,half-half-all,all-half-half,8,7,5963,NA
A10XYFXQYJKBXF,NA,pink,grey,seafoam,All the players are tied,half-half-half,half-half-half,11,1,5820,NA
A10XYFXQYJKBXF,NA,midnight,lavender,wheat,Exactly one player hit some of his shots,none-none-half,half-none-none,10,7,7652,NA
A10XYFXQYJKBXF,NA,royalblue,yellow,tan,Someone did better than Player A,none-half-all,half-none-all,13,1,4721,NA
A10XYFXQYJKBXF,NA,lightblue,midnight,lavender,Player B placed second,none-none-half,half-none-none,12,7,3946,NA
A10XYFXQYJKBXF,NA,midnight,lightorange,brown,Every player hit all of his shots,half-all-all,all-half-all,15,7,7138,NA
A10XYFXQYJKBXF,NA,tan,wheat,midnight,Player C shot perfectly,half-half-half,half-half-half,14,7,3798,NA
A10XYFXQYJKBXF,NA,midnight,lightblue,purple,Player A tied with Player C,half-half-all,all-half-half,17,7,3760,NA
A10XYFXQYJKBXF,NA,pink,lightorange,seafoam,Someone did better than Player B,all-all-all,all-all-all,16,1,4043,NA
A10XYFXQYJKBXF,NA,lightorange,tan,grey,Player A placed second,half-half-half,half-half-half,19,7,6155,NA
A10XYFXQYJKBXF,NA,purple,grey,yellow,Player A shot perfectly,none-all-all,all-all-none,18,7,4807,NA
A10XYFXQYJKBXF,NA,midnight,grey,seafoam,Player A was the star player of the round,most-none-all,most-none-all,-1,1,8242,yes
A10XYFXQYJKBXF,NA,brown,lightblue,purple,Player A made none of his baskets,all-none-few,all-none-few,-3,1,67536,no
A10XYFXQYJKBXF,NA,midnight,lightblue,royalblue,Player C messed up,all-all-none,all-all-none,-2,7,9807,yes
A31F3CWD719718,NA,brown,seafoam,purple,Exactly one player hit none of his shots,half-half-all,half-all-half,24,1,13030,NA
A31F3CWD719718,NA,purple,brown,tan,Exactly one player hit all of his shots,none-all-all,none-all-all,25,1,8237,NA
A31F3CWD719718,NA,tan,lightorange,lightblue,Someone did better than Player B,half-half-half,half-half-half,26,1,4695,NA
A31F3CWD719718,NA,purple,brown,seafoam,Player B placed second,none-none-half,half-none-none,27,6,4602,NA
A31F3CWD719718,NA,seafoam,yellow,darkorange,Exactly one player hit some of his shots,half-all-all,all-all-half,20,1,20046,NA
A31F3CWD719718,NA,grey,purple,tan,Player B shot perfectly,none-none-half,half-none-none,21,1,5195,NA
A31F3CWD719718,NA,wheat,darkorange,tan,Player C shot perfectly,all-all-all,all-all-all,22,7,3479,NA
A31F3CWD719718,NA,brown,royalblue,lightblue,Player B tied with Player C,none-half-half,half-none-half,23,1,4446,NA
A31F3CWD719718,NA,midnight,lightorange,lightblue,No player hit none of his shots,half-all-all,half-all-all,28,1,5289,NA
A31F3CWD719718,NA,wheat,darkorange,yellow,Every player hit all of his shots,half-all-all,all-all-half,1,2,5569,NA
A31F3CWD719718,NA,grey,purple,brown,Player A shot perfectly,none-none-all,none-none-all,0,1,4742,NA
A31F3CWD719718,NA,midnight,brown,lightblue,Player A made no shots,none-half-all,all-half-none,3,1,4712,NA
A31F3CWD719718,NA,grey,lavender,pink,Player B made no shots,none-half-all,none-half-all,2,2,4196,NA
A31F3CWD719718,NA,tan,yellow,royalblue,Player A tied with Player C,none-none-half,half-none-none,5,1,8222,NA
A31F3CWD719718,NA,royalblue,seafoam,yellow,Player C made no shots,none-none-half,none-half-none,4,7,4165,NA
A31F3CWD719718,NA,pink,seafoam,midnight,No player hit all of his shots,all-all-all,all-all-all,7,1,12494,NA
A31F3CWD719718,NA,royalblue,seafoam,purple,Player A placed second,half-half-all,all-half-half,6,1,31106,NA
A31F3CWD719718,NA,midnight,lavender,lightorange,Someone did better than Player A,none-half-all,none-half-all,9,7,4025,NA
A31F3CWD719718,NA,midnight,wheat,purple,Most of the players made shots,none-none-none,none-none-none,8,1,9766,NA
A31F3CWD719718,NA,yellow,tan,royalblue,Someone did better than Player C,none-half-all,half-all-none,11,6,6302,NA
A31F3CWD719718,NA,midnight,lightorange,seafoam,We have a clear winner,none-none-all,none-none-all,10,7,3011,NA
A31F3CWD719718,NA,purple,pink,lightorange,All the players are tied,none-none-half,half-none-none,13,1,5741,NA
A31F3CWD719718,NA,yellow,darkorange,seafoam,Every player hit some of his shots,half-half-all,half-all-half,12,6,3775,NA
A31F3CWD719718,NA,brown,royalblue,midnight,We have a clear loser,none-half-half,half-none-half,15,7,4493,NA
A31F3CWD719718,NA,pink,wheat,midnight,Most of the players missed shots,none-half-half,half-half-none,14,6,7395,NA
A31F3CWD719718,NA,lightblue,lightorange,darkorange,Every player hit none of his shots,none-none-half,half-none-none,17,1,5349,NA
A31F3CWD719718,NA,purple,lightblue,pink,Player A tied with Player B,none-half-half,half-half-none,16,7,4009,NA
A31F3CWD719718,NA,lavender,yellow,wheat,No player hit some of his shots,half-half-all,half-all-half,19,1,5008,NA
A31F3CWD719718,NA,lavender,grey,seafoam,Player C placed second,none-none-all,all-none-none,18,6,9017,NA
A31F3CWD719718,NA,purple,brown,tan,Player A was the star player of the round,most-none-all,most-none-all,-1,2,7801,yes
A31F3CWD719718,NA,purple,lavender,royalblue,Player A made none of his baskets,all-none-few,all-none-few,-3,1,8159,yes
A31F3CWD719718,NA,seafoam,brown,lightblue,Player C messed up,all-all-none,all-all-none,-2,7,6832,yes
A6GK3W5MDWXCY,NA,wheat,pink,seafoam,Every player hit none of his shots,none-none-half,none-half-none,24,1,5702,NA
A6GK3W5MDWXCY,NA,tan,wheat,lavender,Player A tied with Player C,none-none-none,none-none-none,25,7,2805,NA
A6GK3W5MDWXCY,NA,wheat,purple,royalblue,All the players are tied,none-all-all,all-none-all,26,1,2487,NA
A6GK3W5MDWXCY,NA,lightblue,lavender,midnight,Most of the players made shots,half-all-all,all-half-all,27,5,6085,NA
A6GK3W5MDWXCY,NA,seafoam,wheat,royalblue,Player C placed second,half-half-half,half-half-half,20,1,3238,NA
A6GK3W5MDWXCY,NA,lightorange,tan,yellow,Player C made no shots,half-all-all,all-all-half,21,1,2703,NA
A6GK3W5MDWXCY,NA,wheat,lightblue,lavender,Every player hit some of his shots,all-all-all,all-all-all,22,7,3183,NA
A6GK3W5MDWXCY,NA,yellow,wheat,brown,Player C shot perfectly,half-all-all,all-all-half,23,1,4544,NA
A6GK3W5MDWXCY,NA,royalblue,lavender,purple,Player A placed second,half-all-all,all-half-all,28,1,2830,NA
A6GK3W5MDWXCY,NA,darkorange,purple,seafoam,Someone did better than Player B,none-none-none,none-none-none,1,1,4013,NA
A6GK3W5MDWXCY,NA,lavender,midnight,tan,Someone did better than Player C,half-all-all,all-half-all,0,4,7482,NA
A6GK3W5MDWXCY,NA,yellow,lightorange,seafoam,Every player hit all of his shots,none-none-all,all-none-none,3,1,3765,NA
A6GK3W5MDWXCY,NA,lavender,lightblue,grey,Exactly one player hit all of his shots,half-half-all,half-all-half,2,7,4108,NA
A6GK3W5MDWXCY,NA,grey,lavender,lightblue,Player A shot perfectly,none-half-all,all-none-half,5,7,3103,NA
A6GK3W5MDWXCY,NA,lightorange,darkorange,pink,Player A tied with Player B,none-half-all,half-none-all,4,1,4997,NA
A6GK3W5MDWXCY,NA,wheat,tan,seafoam,No player hit all of his shots,half-half-all,all-half-half,7,1,4246,NA
A6GK3W5MDWXCY,NA,grey,purple,tan,Player B made no shots,all-all-all,all-all-all,6,1,3253,NA
A6GK3W5MDWXCY,NA,grey,seafoam,yellow,Most of the players missed shots,none-all-all,all-all-none,9,1,4098,NA
A6GK3W5MDWXCY,NA,wheat,brown,royalblue,Player B shot perfectly,none-none-none,none-none-none,8,1,3238,NA
A6GK3W5MDWXCY,NA,yellow,wheat,lightorange,Exactly one player hit some of his shots,none-half-half,half-half-none,11,1,4926,NA
A6GK3W5MDWXCY,NA,yellow,lightorange,tan,Player B placed second,half-half-all,all-half-half,10,1,8444,NA
A6GK3W5MDWXCY,NA,lightblue,brown,lightorange,No player hit some of his shots,half-all-all,half-all-all,13,1,4855,NA
A6GK3W5MDWXCY,NA,lightorange,brown,darkorange,We have a clear winner,all-all-all,all-all-all,12,1,2646,NA
A6GK3W5MDWXCY,NA,lightblue,grey,seafoam,Exactly one player hit none of his shots,none-half-all,all-half-none,15,7,5085,NA
A6GK3W5MDWXCY,NA,wheat,royalblue,yellow,No player hit none of his shots,half-half-half,half-half-half,14,5,6134,NA
A6GK3W5MDWXCY,NA,purple,pink,yellow,Player B tied with Player C,none-none-none,none-none-none,17,7,3734,NA
A6GK3W5MDWXCY,NA,wheat,tan,grey,Someone did better than Player A,none-none-all,none-all-none,16,7,4078,NA
A6GK3W5MDWXCY,NA,brown,lightblue,royalblue,We have a clear loser,none-none-all,none-all-none,19,1,3102,NA
A6GK3W5MDWXCY,NA,lightblue,royalblue,darkorange,Player A made no shots,none-all-all,none-all-all,18,7,2398,NA
A6GK3W5MDWXCY,NA,lavender,lightblue,midnight,Player A was the star player of the round,most-none-all,most-none-all,-1,1,7821,yes
A6GK3W5MDWXCY,NA,wheat,purple,yellow,Player A made none of his baskets,all-none-few,all-none-few,-3,1,26991,no
A6GK3W5MDWXCY,NA,purple,brown,royalblue,Player C messed up,all-all-none,all-all-none,-2,7,13855,no
A1TSVP4XC9NTR4,NA,tan,wheat,yellow,Every player hit some of his shots,half-half-all,half-all-half,24,2,11984,NA
A1TSVP4XC9NTR4,NA,grey,lightblue,purple,No player hit none of his shots,all-all-all,all-all-all,25,7,35961,NA
A1TSVP4XC9NTR4,NA,seafoam,yellow,lightblue,Player C made no shots,none-none-all,none-all-none,26,6,11856,NA
A1TSVP4XC9NTR4,NA,midnight,wheat,tan,Player A shot perfectly,none-none-none,none-none-none,27,1,8025,NA
A1TSVP4XC9NTR4,NA,lavender,pink,seafoam,Player B placed second,none-none-half,none-none-half,20,3,19626,NA
A1TSVP4XC9NTR4,NA,tan,purple,seafoam,Player C shot perfectly,none-half-half,half-half-none,21,1,9079,NA
A1TSVP4XC9NTR4,NA,lightorange,midnight,seafoam,Exactly one player hit some of his shots,half-half-half,half-half-half,22,1,8443,NA
A1TSVP4XC9NTR4,NA,midnight,wheat,purple,Every player hit all of his shots,half-half-all,half-all-half,23,1,6852,NA
A1TSVP4XC9NTR4,NA,pink,royalblue,yellow,Most of the players made shots,none-half-half,half-half-none,28,3,10226,NA
A1TSVP4XC9NTR4,NA,darkorange,grey,lightblue,Every player hit none of his shots,none-none-half,none-half-none,1,2,15114,NA
A1TSVP4XC9NTR4,NA,purple,tan,seafoam,Most of the players missed shots,none-none-all,none-all-none,0,2,14687,NA
A1TSVP4XC9NTR4,NA,brown,pink,lightblue,Player A made no shots,half-all-all,half-all-all,3,1,6479,NA
A1TSVP4XC9NTR4,NA,wheat,yellow,darkorange,Player B made no shots,half-all-all,all-all-half,2,1,8368,NA
A1TSVP4XC9NTR4,NA,tan,lightorange,wheat,Player B tied with Player C,none-none-all,all-none-none,5,7,9634,NA
A1TSVP4XC9NTR4,NA,lightblue,brown,midnight,Exactly one player hit none of his shots,none-none-all,none-all-none,4,1,10058,NA
A1TSVP4XC9NTR4,NA,seafoam,pink,wheat,Someone did better than Player A,all-all-all,all-all-all,7,1,11419,NA
A1TSVP4XC9NTR4,NA,purple,yellow,grey,Player C placed second,none-none-all,none-all-none,6,3,31799,NA
A1TSVP4XC9NTR4,NA,wheat,lightorange,midnight,All the players are tied,none-half-half,half-none-half,9,1,5581,NA
A1TSVP4XC9NTR4,NA,grey,lightblue,royalblue,No player hit some of his shots,half-half-half,half-half-half,8,1,16322,NA
A1TSVP4XC9NTR4,NA,lightorange,brown,midnight,Player A placed second,half-half-half,half-half-half,11,1,8551,NA
A1TSVP4XC9NTR4,NA,lightblue,wheat,seafoam,We have a clear loser,half-half-half,half-half-half,10,1,6675,NA
A1TSVP4XC9NTR4,NA,purple,lightorange,yellow,Player A tied with Player B,none-none-all,all-none-none,13,1,9729,NA
A1TSVP4XC9NTR4,NA,wheat,grey,pink,Someone did better than Player B,none-none-half,none-half-none,12,1,8357,NA
A1TSVP4XC9NTR4,NA,pink,lightblue,wheat,Player B shot perfectly,all-all-all,all-all-all,15,5,11958,NA
A1TSVP4XC9NTR4,NA,tan,lightblue,yellow,We have a clear winner,none-none-none,none-none-none,14,1,6499,NA
A1TSVP4XC9NTR4,NA,yellow,darkorange,lightblue,Someone did better than Player C,half-half-half,half-half-half,17,3,26334,NA
A1TSVP4XC9NTR4,NA,royalblue,grey,lightblue,No player hit all of his shots,none-none-half,half-none-none,16,6,16910,NA
A1TSVP4XC9NTR4,NA,seafoam,darkorange,royalblue,Player A tied with Player C,none-all-all,all-all-none,19,1,7125,NA
A1TSVP4XC9NTR4,NA,royalblue,seafoam,lightorange,Exactly one player hit all of his shots,none-all-all,all-all-none,18,1,11432,NA
A1TSVP4XC9NTR4,NA,lightorange,midnight,purple,Player A was the star player of the round,most-none-all,most-none-all,-1,1,13742,yes
A1TSVP4XC9NTR4,NA,purple,darkorange,tan,Player A made none of his baskets,all-none-few,all-none-few,-3,1,34617,yes
A1TSVP4XC9NTR4,NA,lightblue,wheat,darkorange,Player C messed up,all-all-none,all-all-none,-2,7,9849,yes
A1QRGVE005067Q,NA,grey,lightorange,royalblue,Every player hit none of his shots,half-all-all,half-all-all,24,1,4109,NA
A1QRGVE005067Q,NA,yellow,lavender,lightblue,Most of the players made shots,none-none-half,none-half-none,25,1,3151,NA
A1QRGVE005067Q,NA,brown,pink,midnight,Exactly one player hit some of his shots,none-half-half,half-none-half,26,1,5331,NA
A1QRGVE005067Q,NA,lavender,brown,darkorange,Most of the players missed shots,none-none-none,none-none-none,27,5,8250,NA
A1QRGVE005067Q,NA,royalblue,grey,tan,Player C made no shots,none-none-all,all-none-none,20,7,3064,NA
A1QRGVE005067Q,NA,lavender,midnight,brown,Player A made no shots,half-half-half,half-half-half,21,1,2338,NA
A1QRGVE005067Q,NA,lightorange,royalblue,wheat,We have a clear loser,half-all-all,all-all-half,22,7,2930,NA
A1QRGVE005067Q,NA,royalblue,seafoam,lavender,We have a clear winner,none-half-all,half-all-none,23,7,2868,NA
A1QRGVE005067Q,NA,tan,seafoam,yellow,Every player hit all of his shots,none-half-all,all-half-none,28,1,2891,NA
A1QRGVE005067Q,NA,purple,lightblue,brown,No player hit some of his shots,half-half-all,all-half-half,1,1,4382,NA
A1QRGVE005067Q,NA,lightorange,tan,brown,Player B shot perfectly,none-none-all,none-none-all,0,1,2742,NA
A1QRGVE005067Q,NA,brown,pink,lavender,Someone did better than Player A,none-half-half,half-none-half,3,1,6523,NA
A1QRGVE005067Q,NA,tan,yellow,seafoam,Exactly one player hit none of his shots,none-all-all,none-all-all,2,7,4442,NA
A1QRGVE005067Q,NA,lightblue,lightorange,wheat,Player A shot perfectly,none-none-none,none-none-none,5,1,1938,NA
A1QRGVE005067Q,NA,tan,brown,purple,Player B made no shots,half-half-half,half-half-half,4,1,2711,NA
A1QRGVE005067Q,NA,brown,wheat,grey,No player hit all of his shots,half-half-half,half-half-half,7,7,2996,NA
A1QRGVE005067Q,NA,grey,brown,pink,Player A placed second,half-all-all,all-all-half,6,3,10872,NA
A1QRGVE005067Q,NA,purple,lightblue,lightorange,Player A tied with Player B,none-half-half,half-half-none,9,7,4869,NA
A1QRGVE005067Q,NA,lightblue,pink,midnight,No player hit none of his shots,half-half-all,all-half-half,8,7,3240,NA
A1QRGVE005067Q,NA,pink,wheat,royalblue,Player A tied with Player C,none-all-all,all-none-all,11,7,2957,NA
A1QRGVE005067Q,NA,lavender,royalblue,purple,Player C shot perfectly,none-none-all,none-none-all,10,7,2226,NA
A1QRGVE005067Q,NA,lightblue,yellow,purple,All the players are tied,none-none-none,none-none-none,13,7,3258,NA
A1QRGVE005067Q,NA,purple,pink,lightblue,Player B placed second,half-half-half,half-half-half,12,2,3834,NA
A1QRGVE005067Q,NA,lightorange,grey,lightblue,Player B tied with Player C,none-none-half,none-none-half,15,1,4082,NA
A1QRGVE005067Q,NA,purple,midnight,lightblue,Every player hit some of his shots,none-half-all,all-half-none,14,1,3028,NA
A1QRGVE005067Q,NA,lavender,tan,pink,Someone did better than Player B,none-none-none,none-none-none,17,1,3212,NA
A1QRGVE005067Q,NA,lavender,grey,seafoam,Exactly one player hit all of his shots,none-half-all,all-half-none,16,7,3731,NA
A1QRGVE005067Q,NA,yellow,wheat,brown,Player C placed second,none-none-all,all-none-none,19,2,4441,NA
A1QRGVE005067Q,NA,seafoam,darkorange,wheat,Someone did better than Player C,none-half-half,half-half-none,18,7,4155,NA
A1QRGVE005067Q,NA,yellow,grey,seafoam,Player A was the star player of the round,most-none-all,most-none-all,-1,1,5728,yes
A1QRGVE005067Q,NA,wheat,yellow,grey,Player A made none of his baskets,all-none-few,all-none-few,-3,1,9456,yes
A1QRGVE005067Q,NA,tan,seafoam,lightorange,Player C messed up,all-all-none,all-all-none,-2,7,5360,yes
A3RYI5HXC2MJLN,NA,tan,grey,wheat,Player C made no shots,none-none-all,none-all-none,24,7,3100,NA
A3RYI5HXC2MJLN,NA,lightorange,grey,brown,Player A placed second,none-none-all,all-none-none,25,1,3816,NA
A3RYI5HXC2MJLN,NA,purple,lightorange,royalblue,We have a clear winner,none-half-all,none-half-all,26,7,4715,NA
A3RYI5HXC2MJLN,NA,wheat,lightblue,lavender,We have a clear loser,none-half-half,none-half-half,27,7,4117,NA
A3RYI5HXC2MJLN,NA,lavender,purple,tan,Every player hit none of his shots,none-none-half,half-none-none,20,1,5283,NA
A3RYI5HXC2MJLN,NA,royalblue,lightblue,wheat,Player B tied with Player C,half-all-all,half-all-all,21,7,3979,NA
A3RYI5HXC2MJLN,NA,grey,purple,darkorange,Someone did better than Player B,none-none-none,none-none-none,22,1,4755,NA
A3RYI5HXC2MJLN,NA,lightorange,seafoam,purple,Player A shot perfectly,none-none-none,none-none-none,23,1,1875,NA
A3RYI5HXC2MJLN,NA,lavender,midnight,lightorange,No player hit all of his shots,none-half-all,none-half-all,28,1,15798,NA
A3RYI5HXC2MJLN,NA,royalblue,lavender,darkorange,Player A tied with Player B,half-half-half,half-half-half,1,7,6330,NA
A3RYI5HXC2MJLN,NA,midnight,grey,tan,Player A tied with Player C,none-none-none,none-none-none,0,7,10278,NA
A3RYI5HXC2MJLN,NA,lavender,midnight,purple,Most of the players made shots,half-all-all,half-all-all,3,6,4922,NA
A3RYI5HXC2MJLN,NA,lightorange,brown,yellow,Exactly one player hit some of his shots,none-none-half,none-half-none,2,7,8579,NA
A3RYI5HXC2MJLN,NA,brown,tan,pink,Player A made no shots,none-none-all,all-none-none,5,1,6118,NA
A3RYI5HXC2MJLN,NA,lightblue,grey,seafoam,All the players are tied,half-half-half,half-half-half,4,1,7029,NA
A3RYI5HXC2MJLN,NA,pink,royalblue,lightorange,Exactly one player hit all of his shots,none-all-all,all-all-none,7,1,4481,NA
A3RYI5HXC2MJLN,NA,purple,wheat,yellow,Player B made no shots,none-half-half,none-half-half,6,1,3219,NA
A3RYI5HXC2MJLN,NA,midnight,darkorange,lavender,Player B shot perfectly,half-all-all,half-all-all,9,7,5460,NA
A3RYI5HXC2MJLN,NA,darkorange,seafoam,midnight,Someone did better than Player A,none-all-all,none-all-all,8,5,4570,NA
A3RYI5HXC2MJLN,NA,lightorange,lavender,tan,Player B placed second,none-half-all,half-none-all,11,1,4515,NA
A3RYI5HXC2MJLN,NA,seafoam,wheat,grey,Every player hit some of his shots,half-all-all,all-half-all,10,5,4458,NA
A3RYI5HXC2MJLN,NA,lightblue,royalblue,pink,Most of the players missed shots,none-half-half,half-half-none,13,5,4571,NA
A3RYI5HXC2MJLN,NA,lavender,tan,seafoam,No player hit some of his shots,none-none-all,all-none-none,12,1,4171,NA
A3RYI5HXC2MJLN,NA,lavender,royalblue,pink,Exactly one player hit none of his shots,none-none-all,all-none-none,15,1,15591,NA
