workerid,Answer.language,player1color,player2color,player3color,sentence,condition,conditionOrder,trialnum,response,rt,trainingCorrect
301,English,wheat,grey,lightblue,Every player hit none of his shots,all-all-all,all-all-all,24,F,5610,NA
301,English,pink,darkorange,lightblue,All the players are tied,half-all-all,all-all-half,25,F,7675,NA
301,English,tan,lightorange,darkorange,Exactly one player hit some of his shots,none-none-all,none-all-none,26,T,7636,NA
301,English,royalblue,tan,wheat,Exactly one player hit none of his shots,half-half-half,half-half-half,27,F,3601,NA
301,English,tan,lightorange,lightblue,Player B made no shots,none-half-half,half-half-none,20,F,3600,NA
301,English,royalblue,lightorange,grey,Player C made no shots,none-half-all,none-all-half,21,F,3499,NA
301,English,darkorange,purple,yellow,Someone did better than Player C,half-half-all,half-half-all,22,F,6331,NA
301,English,pink,midnight,seafoam,Player A placed second,half-all-all,all-all-half,23,F,4933,NA
301,English,lightblue,grey,wheat,We have a clear loser,none-none-all,none-none-all,28,F,5001,NA
301,English,brown,lightorange,midnight,Player C placed second,none-all-all,all-none-all,1,F,21216,NA
301,English,darkorange,pink,lavender,Player B placed second,none-none-all,none-all-none,0,F,28861,NA
301,English,lightblue,yellow,lightorange,No player hit some of his shots,all-all-all,all-all-all,3,F,14779,NA
301,English,seafoam,grey,lightorange,Player A tied with Player C,none-all-all,all-all-none,2,F,7081,NA
301,English,grey,wheat,darkorange,Player B shot perfectly,half-all-all,all-all-half,5,T,5196,NA
301,English,wheat,yellow,grey,Every player hit all of his shots,half-all-all,all-half-all,4,F,5187,NA
301,English,pink,seafoam,tan,No player hit all of his shots,none-none-half,half-none-none,7,T,7075,NA
301,English,wheat,royalblue,purple,Player C shot perfectly,none-all-all,none-all-all,6,T,5144,NA
301,English,darkorange,lightblue,grey,No player hit none of his shots,none-half-half,none-half-half,9,F,9215,NA
301,English,grey,lightblue,midnight,Player B tied with Player C,half-half-half,half-half-half,8,T,7496,NA
301,English,brown,royalblue,lavender,Exactly one player hit all of his shots,none-none-half,half-none-none,11,F,9511,NA
301,English,lavender,tan,yellow,Player A tied with Player B,none-none-half,none-none-half,10,T,6530,NA
301,English,darkorange,wheat,royalblue,Every player hit some of his shots,none-half-half,half-half-none,13,F,4553,NA
301,English,tan,lightorange,purple,Someone did better than Player A,none-none-half,none-none-half,12,T,8969,NA
301,English,darkorange,purple,brown,We have a clear winner,none-none-none,none-none-none,15,F,4166,NA
301,English,midnight,royalblue,purple,Someone did better than Player B,all-all-all,all-all-all,14,F,7086,NA
301,English,purple,grey,yellow,Player A shot perfectly,none-half-half,half-none-half,17,F,5227,NA
301,English,wheat,royalblue,lavender,Player A made no shots,none-all-all,all-all-none,16,F,4847,NA
301,English,purple,darkorange,tan,Most of the players missed shots,all-all-all,all-all-all,19,F,4227,NA
301,English,pink,darkorange,royalblue,Most of the players made shots,none-none-none,none-none-none,18,F,5875,NA
301,English,brown,seafoam,lightorange,Player A was the star player of the round,most-none-all,most-none-all,-1,F,9903,yes
301,English,midnight,wheat,tan,Player A made none of his baskets,all-none-few,all-none-few,-3,F,17429,yes
301,English,lightblue,lavender,midnight,Player C messed up,all-all-none,all-all-none,-2,T,9146,yes
302,english,grey,lightblue,yellow,Player C shot perfectly,none-none-none,none-none-none,24,F,4362,NA
302,english,royalblue,wheat,pink,Player A tied with Player C,all-all-all,all-all-all,25,T,7823,NA
302,english,midnight,pink,brown,Exactly one player hit all of his shots,none-half-all,half-none-all,26,T,7749,NA
302,english,tan,yellow,lavender,Someone did better than Player A,half-half-all,half-all-half,27,T,7000,NA
302,english,midnight,wheat,lavender,Exactly one player hit none of his shots,none-half-all,all-none-half,20,F,12057,NA
302,english,grey,royalblue,darkorange,Someone did better than Player B,none-none-half,none-none-half,21,T,6346,NA
302,english,midnight,lavender,royalblue,Most of the players missed shots,half-half-all,half-half-all,22,T,9258,NA
302,english,lightorange,darkorange,lightblue,Someone did better than Player C,none-none-half,half-none-none,23,T,5613,NA
302,english,darkorange,lightorange,grey,Every player hit none of his shots,half-half-half,half-half-half,28,F,4908,NA
302,english,darkorange,tan,lightblue,Player B placed second,all-all-all,all-all-all,1,F,13625,NA
302,english,grey,tan,lavender,Every player hit some of his shots,none-none-all,none-all-none,0,F,11718,NA
302,english,pink,wheat,royalblue,No player hit none of his shots,none-all-all,all-all-none,3,F,36525,NA
302,english,pink,grey,tan,No player hit all of his shots,half-half-half,half-half-half,2,T,9392,NA
302,english,brown,yellow,purple,Player A tied with Player B,none-none-half,half-none-none,5,F,8829,NA
302,english,lightorange,darkorange,pink,Player A placed second,half-half-half,half-half-half,4,F,11074,NA
302,english,lightorange,lightblue,seafoam,Player C placed second,none-none-none,none-none-none,7,F,14142,NA
302,english,lavender,pink,royalblue,Player B made no shots,all-all-all,all-all-all,6,F,10570,NA
302,english,lavender,tan,royalblue,No player hit some of his shots,half-half-half,half-half-half,9,F,8920,NA
302,english,tan,purple,royalblue,We have a clear loser,none-half-all,all-half-none,8,T,9360,NA
302,english,wheat,royalblue,lightblue,Player C made no shots,all-all-all,all-all-all,11,F,7689,NA
302,english,lightorange,lightblue,brown,Most of the players made shots,none-half-all,none-all-half,10,T,8473,NA
302,english,darkorange,grey,brown,Player A shot perfectly,none-half-half,half-half-none,13,F,5190,NA
302,english,wheat,lightblue,pink,Every player hit all of his shots,none-none-all,all-none-none,12,F,6284,NA
302,english,purple,seafoam,darkorange,Player A made no shots,all-all-all,all-all-all,15,F,4889,NA
302,english,lightorange,yellow,royalblue,All the players are tied,none-half-all,all-half-none,14,F,6906,NA
302,english,brown,lightorange,royalblue,Exactly one player hit some of his shots,half-half-half,half-half-half,17,F,5493,NA
302,english,lightorange,darkorange,lavender,Player B tied with Player C,none-none-half,none-half-none,16,F,5218,NA
302,english,wheat,tan,lightorange,We have a clear winner,none-half-half,none-half-half,19,F,8274,NA
302,english,lightorange,royalblue,brown,Player B shot perfectly,none-none-half,none-none-half,18,F,7761,NA
302,english,yellow,midnight,royalblue,Player A was the star player of the round,most-none-all,most-none-all,-1,F,13767,yes
302,english,tan,midnight,darkorange,Player A made none of his baskets,all-none-few,all-none-few,-3,F,36236,no
302,english,lightorange,darkorange,grey,Player C messed up,all-all-none,all-all-none,-2,T,11657,yes
303,English,tan,lightblue,lavender,Player B made no shots,none-all-all,none-all-all,24,F,2652,NA
303,English,tan,royalblue,brown,Player B tied with Player C,none-none-none,none-none-none,25,T,2332,NA
303,English,royalblue,yellow,pink,Player C made no shots,none-none-none,none-none-none,26,T,3200,NA
303,English,grey,pink,midnight,Exactly one player hit all of his shots,none-all-all,all-none-all,27,F,3968,NA
303,English,wheat,lightorange,tan,Player C placed second,none-half-all,all-half-none,20,F,4676,NA
303,English,lavender,royalblue,wheat,We have a clear loser,none-none-half,half-none-none,21,F,2917,NA
303,English,wheat,royalblue,brown,Someone did better than Player C,none-half-half,half-none-half,22,F,5434,NA
303,English,brown,wheat,darkorange,Every player hit none of his shots,none-all-all,all-all-none,23,F,3365,NA
303,English,lightblue,darkorange,lightorange,Exactly one player hit none of his shots,none-none-half,none-none-half,28,F,2448,NA
303,English,midnight,darkorange,grey,Player B shot perfectly,none-half-half,half-none-half,1,F,3020,NA
303,English,grey,lavender,wheat,Player A made no shots,none-half-half,none-half-half,0,T,4255,NA
303,English,seafoam,lightblue,darkorange,No player hit some of his shots,none-half-all,half-all-none,3,F,3000,NA
303,English,darkorange,lavender,lightorange,Exactly one player hit some of his shots,half-all-all,half-all-all,2,F,3916,NA
303,English,tan,royalblue,yellow,Every player hit some of his shots,none-none-none,none-none-none,5,F,2667,NA
303,English,seafoam,lightblue,tan,No player hit all of his shots,none-none-none,none-none-none,4,T,2198,NA
303,English,seafoam,tan,purple,Player C shot perfectly,none-none-all,none-all-none,7,F,2783,NA
303,English,pink,royalblue,lightorange,Most of the players missed shots,none-half-all,half-none-all,6,T,5369,NA
303,English,yellow,brown,seafoam,We have a clear winner,all-all-all,all-all-all,9,F,2428,NA
303,English,lavender,tan,midnight,Player A tied with Player C,none-half-half,half-half-none,8,F,2852,NA
303,English,wheat,yellow,darkorange,No player hit none of his shots,none-none-half,none-half-none,11,F,3249,NA
303,English,royalblue,lavender,lightblue,Player A placed second,none-none-half,none-none-half,10,F,5302,NA
303,English,lavender,brown,purple,Someone did better than Player A,none-none-half,half-none-none,13,F,3470,NA
303,English,lavender,tan,pink,Player A shot perfectly,none-all-all,all-none-all,12,T,2165,NA
303,English,royalblue,midnight,lightorange,Player B placed second,none-half-all,half-none-all,15,F,3516,NA
303,English,midnight,wheat,pink,Most of the players made shots,none-all-all,all-all-none,14,T,4147,NA
303,English,yellow,lightblue,royalblue,All the players are tied,none-half-half,half-half-none,17,F,3181,NA
303,English,royalblue,grey,tan,Someone did better than Player B,none-half-half,none-half-half,16,F,4287,NA
303,English,purple,wheat,pink,Player A tied with Player B,half-half-half,half-half-half,19,T,3456,NA
303,English,lavender,yellow,royalblue,Every player hit all of his shots,none-half-all,half-none-all,18,F,4151,NA
303,English,seafoam,grey,yellow,Player A was the star player of the round,most-none-all,most-none-all,-1,F,6398,yes
303,English,purple,lavender,darkorange,Player A made none of his baskets,all-none-few,all-none-few,-3,F,10394,yes
303,English,midnight,yellow,pink,Player C messed up,all-all-none,all-all-none,-2,T,5715,yes
304,English,grey,pink,purple,Player A placed second,all-all-all,all-all-all,24,F,2602,NA
304,English,midnight,lightblue,seafoam,Player C placed second,none-all-all,all-none-all,25,F,2508,NA
304,English,lavender,darkorange,grey,All the players are tied,none-half-half,half-none-half,26,F,2065,NA
304,English,grey,midnight,lightblue,Most of the players made shots,none-none-all,none-all-none,27,F,3344,NA
304,English,lavender,wheat,purple,No player hit none of his shots,half-half-all,half-all-half,20,T,5142,NA
304,English,darkorange,pink,lightblue,Player A tied with Player C,none-none-half,none-none-half,21,F,2941,NA
304,English,lavender,seafoam,pink,Player B shot perfectly,none-none-all,none-none-all,22,F,2514,NA
304,English,seafoam,lightorange,tan,Every player hit all of his shots,none-none-half,none-none-half,23,F,1849,NA
304,English,grey,yellow,seafoam,Player B made no shots,all-all-all,all-all-all,28,F,1897,NA
304,English,grey,pink,lightorange,Player C made no shots,none-none-all,none-none-all,1,F,3972,NA
304,English,royalblue,purple,grey,Someone did better than Player C,half-half-all,half-half-all,0,F,4470,NA
304,English,tan,lightblue,lightorange,Someone did better than Player A,none-half-all,half-none-all,3,T,2500,NA
304,English,grey,yellow,lavender,Player A shot perfectly,half-half-half,half-half-half,2,F,1872,NA
304,English,tan,midnight,lavender,No player hit some of his shots,half-half-half,half-half-half,5,F,3505,NA
304,English,brown,wheat,seafoam,Exactly one player hit none of his shots,half-half-half,half-half-half,4,F,3351,NA
304,English,tan,seafoam,wheat,Player B placed second,all-all-all,all-all-all,7,F,4279,NA
304,English,royalblue,tan,darkorange,Most of the players missed shots,half-half-all,half-half-all,6,F,2484,NA
304,English,wheat,brown,seafoam,Player A made no shots,half-half-half,half-half-half,9,F,2557,NA
304,English,seafoam,grey,lavender,Player A tied with Player B,none-none-half,none-half-none,8,F,3543,NA
304,English,lavender,wheat,purple,No player hit all of his shots,none-half-half,half-none-half,11,T,4002,NA
304,English,pink,lavender,royalblue,Every player hit some of his shots,none-none-all,all-none-none,10,F,5201,NA
304,English,royalblue,tan,lavender,Player B tied with Player C,none-none-none,none-none-none,13,T,2861,NA
304,English,purple,yellow,brown,Exactly one player hit all of his shots,none-half-all,none-half-all,12,T,2187,NA
304,English,lightblue,purple,midnight,Player C shot perfectly,all-all-all,all-all-all,15,T,2670,NA
304,English,brown,yellow,grey,Every player hit none of his shots,half-all-all,all-half-all,14,F,3432,NA
304,English,wheat,lightblue,lightorange,We have a clear loser,half-half-half,half-half-half,17,F,2171,NA
304,English,yellow,seafoam,grey,Someone did better than Player B,none-all-all,none-all-all,16,F,3729,NA
304,English,lightblue,lightorange,brown,We have a clear winner,half-all-all,all-all-half,19,F,1831,NA
304,English,purple,yellow,lightblue,Exactly one player hit some of his shots,half-half-all,half-half-all,18,T,2790,NA
304,English,wheat,royalblue,midnight,Player A was the star player of the round,most-none-all,most-none-all,-1,F,6266,yes
304,English,grey,lavender,midnight,Player A made none of his baskets,all-none-few,all-none-few,-3,F,9710,yes
304,English,grey,pink,midnight,Player C messed up,all-all-none,all-all-none,-2,T,5331,yes
47,English,lightorange,yellow,purple,We have a clear loser,half-half-half,half-half-half,24,F,3221,NA
47,English,royalblue,yellow,grey,Player B made no shots,none-none-none,none-none-none,25,T,2165,NA
47,English,lightorange,darkorange,brown,Someone did better than Player B,none-none-none,none-none-none,26,F,2257,NA
47,English,lavender,pink,grey,Every player hit none of his shots,none-none-half,none-half-none,27,F,3279,NA
47,English,lavender,midnight,royalblue,Most of the players made shots,half-all-all,all-all-half,20,F,14088,NA
47,English,wheat,midnight,lightblue,Player C shot perfectly,none-none-half,half-none-none,21,F,9444,NA
47,English,darkorange,seafoam,yellow,Player B tied with Player C,none-all-all,all-none-all,22,F,4448,NA
47,English,lightorange,brown,lightblue,Player B shot perfectly,all-all-all,all-all-all,23,T,2658,NA
47,English,grey,wheat,brown,No player hit none of his shots,none-half-half,half-half-none,28,F,3825,NA
47,English,lightorange,seafoam,brown,Someone did better than Player A,half-all-all,all-all-half,1,F,3455,NA
47,English,brown,darkorange,seafoam,Someone did better than Player C,none-half-half,half-half-none,0,T,6248,NA
47,English,lightblue,lavender,lightorange,Every player hit all of his shots,none-half-half,half-none-half,3,F,3540,NA
47,English,lightblue,purple,midnight,Player C placed second,none-none-half,half-none-none,2,T,3648,NA
47,English,seafoam,wheat,brown,Every player hit some of his shots,half-half-all,half-half-all,5,T,7349,NA
47,English,pink,seafoam,lightorange,We have a clear winner,all-all-all,all-all-all,4,F,2408,NA
47,English,grey,darkorange,wheat,All the players are tied,all-all-all,all-all-all,7,T,23876,NA
47,English,pink,lightorange,grey,Exactly one player hit all of his shots,none-none-all,none-all-none,6,T,7556,NA
47,English,purple,pink,midnight,Player A tied with Player B,none-none-all,none-none-all,9,T,3356,NA
47,English,brown,grey,wheat,Player A tied with Player C,half-half-half,half-half-half,8,T,28234,NA
47,English,lightblue,royalblue,wheat,No player hit some of his shots,none-all-all,none-all-all,11,T,7377,NA
47,English,lightorange,royalblue,tan,Player A made no shots,none-none-none,none-none-none,10,T,3040,NA
47,English,lightblue,grey,lavender,Player A placed second,none-all-all,all-all-none,13,F,3894,NA
47,English,tan,grey,brown,Exactly one player hit none of his shots,all-all-all,all-all-all,12,F,3370,NA
47,English,pink,wheat,yellow,Exactly one player hit some of his shots,half-all-all,all-half-all,15,T,4046,NA
47,English,lightorange,pink,yellow,Player B placed second,none-half-half,none-half-half,14,T,3277,NA
47,English,darkorange,brown,lavender,No player hit all of his shots,half-half-half,half-half-half,17,T,2739,NA
47,English,wheat,lavender,purple,Most of the players missed shots,none-half-all,none-half-all,16,T,5274,NA
47,English,tan,royalblue,midnight,Player A shot perfectly,half-half-all,half-half-all,19,F,3106,NA
47,English,darkorange,pink,lavender,Player C made no shots,half-half-all,half-half-all,18,F,2815,NA
47,English,brown,seafoam,tan,Player A was the star player of the round,most-none-all,most-none-all,-1,F,7860,yes
47,English,tan,lightorange,yellow,Player A made none of his baskets,all-none-few,all-none-few,-3,F,9604,yes
47,English,purple,pink,grey,Player C messed up,all-all-none,all-all-none,-2,T,5071,yes
305,English,seafoam,brown,wheat,No player hit all of his shots,none-none-all,none-all-none,24,F,3181,NA
305,English,tan,lightblue,seafoam,Player B made no shots,none-none-all,all-none-none,25,T,3315,NA
305,English,yellow,pink,grey,Someone did better than Player A,none-all-all,all-none-all,26,F,8501,NA
305,English,purple,midnight,wheat,Player A tied with Player C,all-all-all,all-all-all,27,T,2434,NA
305,English,royalblue,yellow,tan,All the players are tied,none-half-all,all-half-none,20,F,3518,NA
305,English,purple,pink,grey,Exactly one player hit all of his shots,all-all-all,all-all-all,21,F,2764,NA
305,English,lightorange,seafoam,wheat,Player B shot perfectly,half-half-half,half-half-half,22,F,3603,NA
305,English,royalblue,purple,lightorange,No player hit some of his shots,half-half-half,half-half-half,23,F,15817,NA
305,English,midnight,tan,yellow,Player B tied with Player C,none-all-all,all-none-all,28,F,4182,NA
305,English,darkorange,purple,lightorange,Every player hit all of his shots,none-none-half,half-none-none,1,F,6314,NA
305,English,royalblue,wheat,brown,Exactly one player hit none of his shots,none-none-all,none-none-all,0,F,8344,NA
305,English,midnight,wheat,seafoam,Every player hit none of his shots,none-half-all,none-half-all,3,F,6168,NA
305,English,tan,lavender,seafoam,Someone did better than Player C,half-all-all,all-all-half,2,T,4387,NA
305,English,grey,darkorange,pink,Every player hit some of his shots,none-all-all,all-all-none,5,F,3332,NA
305,English,wheat,lightorange,pink,Most of the players made shots,half-all-all,all-all-half,4,T,3697,NA
305,English,seafoam,brown,royalblue,Player C placed second,none-all-all,all-none-all,7,T,8403,NA
305,English,lightblue,midnight,pink,Player A shot perfectly,half-half-all,all-half-half,6,T,4869,NA
305,English,seafoam,lightblue,tan,Someone did better than Player B,none-half-half,half-none-half,9,T,6166,NA
305,English,royalblue,purple,yellow,Player C made no shots,half-all-all,all-half-all,8,F,3680,NA
305,English,lavender,brown,purple,No player hit none of his shots,none-none-half,half-none-none,11,F,6117,NA
305,English,lightblue,lavender,yellow,Player B placed second,half-all-all,half-all-all,10,F,4730,NA
305,English,purple,darkorange,wheat,We have a clear loser,none-none-all,none-none-all,13,F,5283,NA
305,English,lavender,midnight,wheat,Exactly one player hit some of his shots,none-half-all,half-all-none,12,T,5066,NA
305,English,midnight,wheat,yellow,Player A made no shots,all-all-all,all-all-all,15,F,3183,NA
305,English,seafoam,yellow,darkorange,We have a clear winner,none-none-all,none-all-none,14,T,3834,NA
305,English,grey,tan,seafoam,Player A placed second,none-half-all,half-all-none,17,T,34301,NA
305,English,royalblue,lightblue,pink,Player A tied with Player B,all-all-all,all-all-all,16,T,6264,NA
305,English,lavender,grey,royalblue,Most of the players missed shots,none-none-none,none-none-none,19,T,7125,NA
305,English,darkorange,seafoam,pink,Player C shot perfectly,all-all-all,all-all-all,18,T,2473,NA
305,English,lightblue,grey,lavender,Player A was the star player of the round,most-none-all,most-none-all,-1,F,9175,yes
305,English,purple,tan,yellow,Player A made none of his baskets,all-none-few,all-none-few,-3,F,12040,yes
305,English,seafoam,pink,purple,Player C messed up,all-all-none,all-all-none,-2,T,6586,yes
306,english,yellow,grey,midnight,Player A tied with Player C,half-all-all,half-all-all,24,F,4141,NA
306,english,lightblue,tan,lightorange,Most of the players made shots,none-none-all,none-none-all,25,F,5460,NA
306,english,lavender,midnight,wheat,Player A shot perfectly,all-all-all,all-all-all,26,T,3373,NA
306,english,pink,lightorange,midnight,Player A made no shots,none-half-half,none-half-half,27,T,3421,NA
306,english,tan,midnight,seafoam,Someone did better than Player B,none-all-all,none-all-all,20,F,7253,NA
306,english,purple,lightorange,yellow,We have a clear winner,half-half-all,all-half-half,21,F,4611,NA
306,english,yellow,wheat,pink,Every player hit some of his shots,none-none-all,all-none-none,22,F,3132,NA
306,english,midnight,royalblue,lightblue,Exactly one player hit all of his shots,none-all-all,all-all-none,23,F,3485,NA
306,english,yellow,tan,darkorange,Every player hit none of his shots,half-half-half,half-half-half,28,F,3382,NA
306,english,lavender,darkorange,brown,No player hit none of his shots,half-half-half,half-half-half,1,T,7348,NA
306,english,lightorange,yellow,darkorange,Player A tied with Player B,all-all-all,all-all-all,0,T,15799,NA
306,english,tan,purple,darkorange,Player B made no shots,none-none-none,none-none-none,3,T,3885,NA
306,english,brown,purple,darkorange,Player B tied with Player C,all-all-all,all-all-all,2,T,5185,NA
306,english,purple,lavender,tan,No player hit some of his shots,none-half-half,half-none-half,5,F,12037,NA
306,english,lightblue,lavender,darkorange,Someone did better than Player C,none-none-half,none-none-half,4,F,9644,NA
306,english,yellow,darkorange,midnight,Exactly one player hit some of his shots,none-all-all,all-none-all,7,F,8242,NA
306,english,lightorange,wheat,brown,No player hit all of his shots,half-all-all,half-all-all,6,F,5565,NA
306,english,tan,royalblue,lightblue,All the players are tied,none-none-none,none-none-none,9,T,5829,NA
306,english,lightblue,seafoam,tan,We have a clear loser,none-half-all,all-none-half,8,T,4220,NA
306,english,lavender,brown,darkorange,Player C made no shots,half-half-half,half-half-half,11,F,24367,NA
306,english,yellow,wheat,purple,Someone did better than Player A,none-none-half,none-half-none,10,T,20630,NA
306,english,royalblue,yellow,lightblue,Player A placed second,all-all-all,all-all-all,13,F,6860,NA
306,english,pink,darkorange,tan,Player C placed second,none-none-all,all-none-none,12,T,48347,NA
306,english,royalblue,tan,brown,Player C shot perfectly,half-all-all,half-all-all,15,T,8580,NA
306,english,pink,brown,seafoam,Exactly one player hit none of his shots,none-none-none,none-none-none,14,F,12378,NA
306,english,darkorange,yellow,midnight,Player B placed second,none-half-half,none-half-half,17,F,7956,NA
306,english,royalblue,seafoam,purple,Player B shot perfectly,all-all-all,all-all-all,16,T,3582,NA
306,english,pink,wheat,lavender,Every player hit all of his shots,half-half-all,half-half-all,19,F,25633,NA
306,english,wheat,seafoam,purple,Most of the players missed shots,none-half-half,half-half-none,18,T,17237,NA
306,english,wheat,lavender,brown,Player A was the star player of the round,most-none-all,most-none-all,-1,F,17939,yes
306,english,brown,seafoam,darkorange,Player A made none of his baskets,all-none-few,all-none-few,-3,F,10786,yes
306,english,pink,midnight,lightblue,Player C messed up,all-all-none,all-all-none,-2,T,5545,yes
307,English,seafoam,royalblue,midnight,Every player hit none of his shots,none-half-half,none-half-half,24,F,3444,NA
307,English,midnight,lavender,yellow,Player B tied with Player C,half-all-all,half-all-all,25,T,3574,NA
307,English,brown,lightorange,midnight,Someone did better than Player B,none-none-all,all-none-none,26,T,3285,NA
307,English,darkorange,seafoam,wheat,We have a clear winner,none-none-half,half-none-none,27,T,3253,NA
307,English,darkorange,brown,seafoam,Every player hit some of his shots,half-half-all,all-half-half,20,T,6540,NA
307,English,seafoam,midnight,pink,Player B shot perfectly,all-all-all,all-all-all,21,T,2958,NA
307,English,pink,tan,wheat,No player hit all of his shots,half-half-half,half-half-half,22,T,3581,NA
307,English,tan,pink,grey,Player B made no shots,none-none-half,none-none-half,23,T,2699,NA
307,English,wheat,lavender,midnight,Most of the players missed shots,none-half-half,half-none-half,28,T,6172,NA
307,English,grey,lightorange,royalblue,Exactly one player hit none of his shots,all-all-all,all-all-all,1,F,7202,NA
307,English,tan,wheat,brown,No player hit some of his shots,none-half-all,none-all-half,0,F,19903,NA
307,English,lightorange,purple,grey,Someone did better than Player C,none-half-half,half-none-half,3,F,6005,NA
307,English,brown,lightblue,midnight,Player C shot perfectly,none-all-all,all-none-all,2,T,3013,NA
307,English,lavender,lightorange,darkorange,Player A tied with Player B,none-all-all,all-all-none,5,T,4134,NA
307,English,pink,lightorange,tan,Player B placed second,none-all-all,all-all-none,4,T,9770,NA
307,English,midnight,royalblue,tan,Someone did better than Player A,none-half-all,half-all-none,7,T,3421,NA
307,English,purple,seafoam,midnight,Player A shot perfectly,none-half-half,half-half-none,6,F,4034,NA
307,English,pink,grey,royalblue,Exactly one player hit all of his shots,half-half-half,half-half-half,9,F,4182,NA
307,English,midnight,royalblue,tan,Player A placed second,none-half-all,half-none-all,8,T,4262,NA
307,English,yellow,wheat,seafoam,No player hit none of his shots,half-half-all,half-all-half,11,T,11846,NA
307,English,grey,darkorange,yellow,We have a clear loser,all-all-all,all-all-all,10,F,3116,NA
307,English,lightblue,tan,royalblue,Every player hit all of his shots,none-none-half,none-half-none,13,F,5052,NA
307,English,lavender,royalblue,lightblue,Player C made no shots,all-all-all,all-all-all,12,F,2932,NA
307,English,royalblue,lightorange,lavender,Most of the players made shots,none-half-half,none-half-half,15,T,7946,NA
307,English,wheat,purple,darkorange,Player A made no shots,half-half-all,half-all-half,14,F,2885,NA
307,English,pink,wheat,midnight,Player C placed second,none-none-none,none-none-none,17,F,4220,NA
307,English,purple,lightorange,yellow,All the players are tied,none-half-half,half-half-none,16,F,4510,NA
307,English,seafoam,royalblue,lavender,Exactly one player hit some of his shots,none-none-all,none-none-all,19,F,7054,NA
307,English,royalblue,tan,pink,Player A tied with Player C,none-none-half,none-half-none,18,T,4150,NA
307,English,grey,yellow,pink,Player A was the star player of the round,most-none-all,most-none-all,-1,F,8628,yes
307,English,darkorange,yellow,wheat,Player A made none of his baskets,all-none-few,all-none-few,-3,F,22257,yes
307,English,midnight,yellow,royalblue,Player C messed up,all-all-none,all-all-none,-2,T,9336,yes
308,English,darkorange,brown,wheat,Player A made no shots,none-half-all,half-none-all,24,F,2490,NA
308,English,lightblue,midnight,seafoam,No player hit none of his shots,none-none-none,none-none-none,25,F,9303,NA
308,English,tan,darkorange,grey,Someone did better than Player B,none-all-all,none-all-all,26,F,4358,NA
308,English,purple,darkorange,wheat,Player C placed second,none-all-all,none-all-all,27,F,3825,NA
308,English,brown,yellow,lavender,Exactly one player hit none of his shots,all-all-all,all-all-all,20,F,5623,NA
308,English,pink,lightorange,royalblue,Most of the players missed shots,none-half-half,none-half-half,21,T,5520,NA
308,English,brown,tan,purple,Player A placed second,half-half-half,half-half-half,22,F,5294,NA
308,English,midnight,tan,purple,We have a clear loser,all-all-all,all-all-all,23,F,2539,NA
308,English,seafoam,darkorange,lightorange,No player hit all of his shots,none-none-all,all-none-none,28,F,4765,NA
308,English,wheat,purple,midnight,No player hit some of his shots,none-half-half,half-half-none,1,F,9193,NA
308,English,royalblue,seafoam,darkorange,Every player hit some of his shots,none-half-all,all-none-half,0,F,11716,NA
308,English,grey,tan,midnight,Player A tied with Player B,half-half-half,half-half-half,3,T,6381,NA
308,English,lightorange,darkorange,wheat,Player B placed second,half-half-half,half-half-half,2,F,6459,NA
308,English,midnight,seafoam,brown,Player B made no shots,none-none-half,half-none-none,5,T,7900,NA
308,English,lightorange,royalblue,brown,Player B tied with Player C,half-half-half,half-half-half,4,T,4776,NA
308,English,pink,yellow,tan,Exactly one player hit some of his shots,all-all-all,all-all-all,7,F,5191,NA
308,English,darkorange,midnight,tan,Player C shot perfectly,half-all-all,all-half-all,6,T,3722,NA
308,English,pink,seafoam,wheat,Player A tied with Player C,none-half-all,none-all-half,9,F,3495,NA
308,English,lavender,lightorange,pink,Every player hit none of his shots,none-none-all,none-all-none,8,F,6079,NA
308,English,wheat,tan,brown,We have a clear winner,half-half-all,half-all-half,11,T,5110,NA
308,English,grey,brown,pink,All the players are tied,half-half-half,half-half-half,10,T,5373,NA
308,English,tan,midnight,grey,Someone did better than Player A,none-none-none,none-none-none,13,F,6232,NA
308,English,grey,seafoam,tan,Player C made no shots,none-half-all,all-none-half,12,F,3190,NA
308,English,wheat,lightorange,midnight,Player B shot perfectly,all-all-all,all-all-all,15,T,2714,NA
308,English,tan,royalblue,purple,Exactly one player hit all of his shots,none-all-all,all-none-all,14,F,5217,NA
308,English,yellow,lightorange,royalblue,Someone did better than Player C,all-all-all,all-all-all,17,F,3971,NA
308,English,grey,royalblue,pink,Player A shot perfectly,none-none-none,none-none-none,16,F,3989,NA
308,English,purple,pink,lightorange,Most of the players made shots,none-none-none,none-none-none,19,F,4596,NA
308,English,pink,lightblue,darkorange,Every player hit all of his shots,none-half-all,all-half-none,18,F,2701,NA
308,English,royalblue,darkorange,lightorange,Player A was the star player of the round,most-none-all,most-none-all,-1,F,8578,yes
308,English,wheat,brown,lightblue,Player A made none of his baskets,all-none-few,all-none-few,-3,F,11600,yes
308,English,brown,royalblue,purple,Player C messed up,all-all-none,all-all-none,-2,T,6565,yes
309,english,wheat,pink,midnight,Exactly one player hit some of his shots,none-none-half,half-none-none,24,T,5370,NA
309,english,lightblue,yellow,darkorange,Player C placed second,half-half-half,half-half-half,25,F,5490,NA
309,english,lightblue,darkorange,purple,We have a clear winner,none-half-all,all-half-none,26,T,3998,NA
309,english,yellow,lightblue,darkorange,Someone did better than Player A,none-half-all,half-none-all,27,T,4875,NA
309,english,pink,purple,seafoam,Player B made no shots,none-all-all,all-all-none,20,F,5059,NA
309,english,tan,lightblue,wheat,Player B shot perfectly,none-half-all,all-half-none,21,F,2844,NA
309,english,grey,wheat,darkorange,Exactly one player hit none of his shots,none-none-all,none-none-all,22,F,4704,NA
309,english,tan,midnight,brown,Player C made no shots,none-none-half,none-half-none,23,T,3922,NA
309,english,purple,brown,midnight,Player A tied with Player B,none-none-all,none-all-none,28,F,5347,NA
309,english,purple,brown,tan,Exactly one player hit all of his shots,none-none-half,half-none-none,1,F,10902,NA
309,english,tan,lightblue,wheat,We have a clear loser,none-all-all,all-all-none,0,T,7131,NA
309,english,lightblue,yellow,pink,No player hit none of his shots,none-half-all,half-all-none,3,F,7262,NA
309,english,grey,pink,seafoam,Most of the players missed shots,all-all-all,all-all-all,2,F,5846,NA
309,english,brown,grey,seafoam,Every player hit some of his shots,half-half-half,half-half-half,5,T,4768,NA
309,english,seafoam,lavender,lightblue,Someone did better than Player C,none-half-all,all-half-none,4,T,7069,NA
309,english,yellow,tan,grey,Player A tied with Player C,half-all-all,all-all-half,7,F,4486,NA
309,english,pink,wheat,lightorange,Someone did better than Player B,none-none-none,none-none-none,6,F,7108,NA
309,english,midnight,grey,yellow,Player B tied with Player C,none-all-all,none-all-all,9,T,5802,NA
309,english,purple,midnight,yellow,Every player hit all of his shots,none-half-all,half-none-all,8,F,4761,NA
309,english,pink,royalblue,wheat,Player A made no shots,none-all-all,all-all-none,11,F,5210,NA
309,english,pink,midnight,yellow,No player hit some of his shots,none-all-all,none-all-all,10,T,17011,NA
309,english,lavender,darkorange,seafoam,Every player hit none of his shots,none-half-all,none-half-all,13,F,4735,NA
309,english,purple,seafoam,darkorange,No player hit all of his shots,none-half-half,none-half-half,12,T,4256,NA
309,english,brown,grey,royalblue,All the players are tied,none-half-all,half-none-all,15,F,5071,NA
309,english,tan,darkorange,seafoam,Player A placed second,none-all-all,none-all-all,14,F,6505,NA
309,english,tan,lightblue,yellow,Most of the players made shots,half-half-half,half-half-half,17,F,11187,NA
309,english,pink,lightblue,yellow,Player B placed second,none-none-half,none-none-half,16,T,7937,NA
309,english,brown,seafoam,tan,Player A shot perfectly,half-all-all,half-all-all,19,F,3272,NA
309,english,royalblue,purple,seafoam,Player C shot perfectly,none-none-half,half-none-none,18,F,4220,NA
309,english,lavender,royalblue,lightorange,Player A was the star player of the round,most-none-all,most-none-all,-1,F,10696,yes
309,english,grey,lightblue,brown,Player A made none of his baskets,all-none-few,all-none-few,-3,F,16090,yes
309,english,lightorange,yellow,grey,Player C messed up,all-all-none,all-all-none,-2,T,12492,yes
310,English,purple,lightblue,lavender,No player hit none of his shots,half-all-all,all-half-all,24,T,4811,NA
310,English,lightorange,seafoam,pink,Exactly one player hit all of his shots,none-half-half,half-none-half,25,F,4499,NA
310,English,wheat,yellow,brown,Player B placed second,half-half-all,all-half-half,26,T,3394,NA
310,English,midnight,lightorange,lavender,Most of the players missed shots,half-half-half,half-half-half,27,T,3901,NA
310,English,darkorange,tan,grey,Exactly one player hit none of his shots,none-none-none,none-none-none,20,F,10016,NA
310,English,brown,seafoam,lightblue,Someone did better than Player A,all-all-all,all-all-all,21,F,2765,NA
310,English,wheat,pink,grey,Most of the players made shots,half-half-all,all-half-half,22,T,6587,NA
310,English,pink,tan,lightorange,Every player hit some of his shots,none-none-none,none-none-none,23,F,2647,NA
310,English,tan,midnight,royalblue,Player A tied with Player B,half-half-all,all-half-half,28,F,2902,NA
310,English,wheat,lightblue,darkorange,Player B shot perfectly,none-half-all,none-all-half,1,T,4066,NA
310,English,lavender,tan,grey,Player C shot perfectly,none-none-all,all-none-none,0,F,4030,NA
310,English,lightblue,brown,grey,Player A placed second,none-none-none,none-none-none,3,F,8452,NA
310,English,darkorange,lightblue,grey,No player hit all of his shots,none-none-all,all-none-none,2,F,6191,NA
310,English,seafoam,brown,darkorange,Player B tied with Player C,half-half-all,half-half-all,5,F,4425,NA
310,English,lavender,purple,royalblue,We have a clear loser,none-none-all,none-none-all,4,F,3792,NA
310,English,midnight,pink,darkorange,Someone did better than Player B,none-all-all,all-none-all,7,T,4815,NA
310,English,midnight,lightorange,tan,We have a clear winner,none-half-half,none-half-half,6,F,3946,NA
310,English,darkorange,seafoam,wheat,Player B made no shots,none-half-half,none-half-half,9,F,4025,NA
310,English,purple,seafoam,lavender,Exactly one player hit some of his shots,none-none-half,none-none-half,8,T,4838,NA
310,English,lightblue,seafoam,lightorange,Player A shot perfectly,half-half-half,half-half-half,11,F,2613,NA
310,English,darkorange,grey,purple,Player A made no shots,none-half-half,half-none-half,10,F,2351,NA
310,English,tan,lavender,yellow,Player C made no shots,none-half-all,half-all-none,13,T,3220,NA
310,English,lightblue,purple,tan,Player C placed second,half-half-half,half-half-half,12,F,2869,NA
310,English,lightorange,seafoam,tan,Player A tied with Player C,all-all-all,all-all-all,15,T,2885,NA
310,English,wheat,darkorange,lavender,Every player hit all of his shots,none-none-none,none-none-none,14,F,2926,NA
310,English,lightblue,wheat,brown,No player hit some of his shots,all-all-all,all-all-all,17,F,4165,NA
310,English,royalblue,tan,midnight,Every player hit none of his shots,none-none-half,half-none-none,16,F,3085,NA
310,English,wheat,lavender,seafoam,All the players are tied,none-half-half,half-none-half,19,F,3036,NA
310,English,lightblue,yellow,pink,Someone did better than Player C,none-none-none,none-none-none,18,F,4387,NA
310,English,yellow,brown,wheat,Player A was the star player of the round,most-none-all,most-none-all,-1,F,7647,yes
310,English,tan,lightorange,lightblue,Player A made none of his baskets,all-none-few,all-none-few,-3,F,11553,yes
310,English,lightblue,yellow,pink,Player C messed up,all-all-none,all-all-none,-2,T,6871,yes
311,english,brown,wheat,grey,Exactly one player hit all of his shots,half-half-half,half-half-half,24,F,8075,NA
311,english,darkorange,midnight,brown,No player hit all of his shots,half-half-half,half-half-half,25,F,13186,NA
311,english,lightblue,lavender,midnight,Every player hit none of his shots,half-all-all,all-all-half,26,F,4482,NA
311,english,pink,brown,purple,Every player hit some of his shots,all-all-all,all-all-all,27,T,6006,NA
311,english,brown,tan,lightblue,Someone did better than Player A,none-none-half,none-none-half,20,T,4466,NA
311,english,tan,brown,purple,No player hit none of his shots,none-all-all,none-all-all,21,F,6972,NA
311,english,midnight,lightorange,brown,Player A tied with Player B,none-none-none,none-none-none,22,T,13343,NA
311,english,royalblue,purple,darkorange,We have a clear loser,none-none-all,none-none-all,23,T,5024,NA
311,english,darkorange,seafoam,brown,Most of the players made shots,none-none-all,none-all-none,28,T,4411,NA
311,english,yellow,brown,lightorange,Player A placed second,none-none-half,none-half-none,1,F,6683,NA
311,english,midnight,purple,lavender,Someone did better than Player B,none-none-none,none-none-none,0,F,12104,NA
311,english,yellow,royalblue,pink,Player B shot perfectly,half-all-all,half-all-all,3,T,5147,NA
311,english,lightorange,midnight,lightblue,Exactly one player hit none of his shots,half-half-all,half-all-half,2,T,13043,NA
311,english,brown,lavender,lightblue,Player B made no shots,all-all-all,all-all-all,5,F,10782,NA
311,english,seafoam,royalblue,pink,All the players are tied,none-none-half,half-none-none,4,F,5105,NA
311,english,lavender,brown,lightblue,Player B tied with Player C,none-half-all,none-half-all,7,F,7378,NA
311,english,seafoam,royalblue,pink,Player A shot perfectly,none-half-all,all-none-half,6,T,4562,NA
311,english,royalblue,seafoam,lightorange,Exactly one player hit some of his shots,half-all-all,half-all-all,9,T,7376,NA
311,english,grey,pink,wheat,Every player hit all of his shots,none-half-all,half-all-none,8,F,4998,NA
311,english,lavender,lightblue,midnight,Player C made no shots,half-all-all,half-all-all,11,F,4695,NA
311,english,wheat,grey,midnight,We have a clear winner,none-none-half,none-half-none,10,T,6176,NA
311,english,grey,brown,wheat,Player C shot perfectly,half-half-all,half-all-half,13,T,5068,NA
311,english,lightblue,seafoam,purple,Player A tied with Player C,half-half-all,half-all-half,12,T,10208,NA
311,english,brown,grey,lavender,Player C placed second,none-none-all,none-all-none,15,T,5512,NA
311,english,lightorange,lightblue,brown,Player B placed second,none-none-half,none-half-none,14,F,5498,NA
311,english,brown,grey,darkorange,Most of the players missed shots,none-none-half,none-half-none,17,F,6056,NA
311,english,midnight,yellow,lavender,Someone did better than Player C,none-none-all,none-none-all,16,F,6009,NA
311,english,lightorange,lavender,lightblue,No player hit some of his shots,none-none-all,all-none-none,19,F,9886,NA
311,english,tan,pink,wheat,Player A made no shots,none-none-all,none-all-none,18,T,7457,NA
311,english,tan,seafoam,wheat,Player A was the star player of the round,most-none-all,most-none-all,-1,F,10108,yes
311,english,royalblue,brown,lightorange,Player A made none of his baskets,all-none-few,all-none-few,-3,F,15322,yes
311,english,grey,tan,wheat,Player C messed up,all-all-none,all-all-none,-2,T,10643,yes
312,English,royalblue,pink,lightorange,We have a clear winner,none-none-half,none-half-none,24,T,3831,NA
312,English,grey,lavender,purple,Someone did better than Player B,all-all-all,all-all-all,25,F,3163,NA
312,English,pink,royalblue,lightorange,Exactly one player hit some of his shots,half-half-all,all-half-half,26,F,4684,NA
312,English,lightorange,lavender,grey,Most of the players missed shots,none-none-none,none-none-none,27,F,3793,NA
312,English,darkorange,grey,wheat,We have a clear loser,all-all-all,all-all-all,20,F,2781,NA
312,English,brown,grey,royalblue,Exactly one player hit none of his shots,none-half-half,none-half-half,21,T,4755,NA
312,English,tan,darkorange,midnight,Every player hit some of his shots,none-none-half,none-none-half,22,F,2979,NA
312,English,purple,lavender,seafoam,Player C made no shots,half-half-half,half-half-half,23,F,4164,NA
312,English,midnight,grey,tan,Player A tied with Player B,all-all-all,all-all-all,28,T,3352,NA
312,English,brown,midnight,royalblue,Someone did better than Player C,half-all-all,all-half-all,1,F,6335,NA
312,English,pink,purple,midnight,No player hit none of his shots,half-all-all,all-all-half,0,T,5876,NA
312,English,tan,pink,purple,Every player hit none of his shots,all-all-all,all-all-all,3,F,5084,NA
312,English,lavender,lightorange,midnight,No player hit all of his shots,half-all-all,all-half-all,2,F,4311,NA
312,English,seafoam,yellow,wheat,Player A tied with Player C,none-half-all,all-half-none,5,F,3886,NA
312,English,midnight,grey,lightorange,Player A shot perfectly,all-all-all,all-all-all,4,T,3070,NA
312,English,tan,yellow,darkorange,Player B made no shots,half-all-all,all-half-all,7,F,3448,NA
312,English,tan,darkorange,lightblue,Player B shot perfectly,none-all-all,all-all-none,6,T,3144,NA
312,English,lightblue,seafoam,lightorange,Player B tied with Player C,none-none-none,none-none-none,9,T,4399,NA
312,English,wheat,lightorange,royalblue,Player A placed second,none-half-half,half-none-half,8,F,6006,NA
312,English,royalblue,grey,brown,Player A made no shots,none-none-none,none-none-none,11,T,2570,NA
312,English,darkorange,royalblue,lavender,Exactly one player hit all of his shots,half-half-half,half-half-half,10,F,4022,NA
312,English,darkorange,pink,royalblue,Player B placed second,half-half-half,half-half-half,13,F,3286,NA
312,English,lightblue,lavender,seafoam,Someone did better than Player A,all-all-all,all-all-all,12,F,3119,NA
312,English,pink,royalblue,grey,All the players are tied,half-half-half,half-half-half,15,T,2390,NA
312,English,darkorange,grey,purple,Player C placed second,half-half-half,half-half-half,14,F,2899,NA
312,English,purple,grey,yellow,Player C shot perfectly,none-all-all,all-none-all,17,T,3034,NA
312,English,brown,midnight,royalblue,Most of the players made shots,none-half-half,none-half-half,16,F,9420,NA
312,English,purple,grey,royalblue,No player hit some of his shots,half-half-half,half-half-half,19,F,4004,NA
312,English,purple,pink,lavender,Every player hit all of his shots,half-half-all,half-all-half,18,F,3181,NA
312,English,yellow,grey,seafoam,Player A was the star player of the round,most-none-all,most-none-all,-1,F,9120,yes
312,English,yellow,pink,darkorange,Player A made none of his baskets,all-none-few,all-none-few,-3,F,11647,yes
312,English,lightblue,midnight,wheat,Player C messed up,all-all-none,all-all-none,-2,T,6558,yes
313,English,lightorange,pink,lightblue,Every player hit some of his shots,half-all-all,half-all-all,24,T,3879,NA
313,English,lightblue,lavender,midnight,No player hit some of his shots,none-half-half,none-half-half,25,F,6062,NA
313,English,darkorange,purple,pink,Player B placed second,half-half-all,all-half-half,26,F,5984,NA
313,English,yellow,royalblue,purple,Exactly one player hit some of his shots,half-all-all,all-half-all,27,T,8750,NA
313,English,tan,royalblue,seafoam,We have a clear loser,none-none-all,all-none-none,20,F,3991,NA
313,English,brown,darkorange,tan,We have a clear winner,half-half-half,half-half-half,21,F,3726,NA
313,English,midnight,darkorange,pink,Player C placed second,none-none-none,none-none-none,22,F,4078,NA
313,English,wheat,yellow,grey,Player A shot perfectly,none-all-all,all-none-all,23,T,3086,NA
313,English,seafoam,brown,purple,No player hit all of his shots,half-half-half,half-half-half,28,T,3707,NA
313,English,lightorange,darkorange,lavender,Exactly one player hit none of his shots,none-all-all,none-all-all,1,T,7102,NA
313,English,brown,seafoam,lightblue,Most of the players missed shots,none-none-all,none-none-all,0,T,4700,NA
313,English,tan,grey,wheat,Most of the players made shots,none-all-all,all-all-none,3,T,3683,NA
313,English,royalblue,lavender,darkorange,Player C shot perfectly,none-none-half,half-none-none,2,F,3802,NA
313,English,lightorange,tan,wheat,Player A made no shots,all-all-all,all-all-all,5,F,4235,NA
313,English,wheat,brown,royalblue,Player A tied with Player B,half-half-all,all-half-half,4,F,4482,NA
313,English,pink,tan,brown,Every player hit all of his shots,all-all-all,all-all-all,7,T,3030,NA
313,English,brown,lightblue,wheat,Player B tied with Player C,none-half-half,half-half-none,6,F,3474,NA
313,English,purple,pink,grey,Player B made no shots,half-half-all,all-half-half,9,F,5268,NA
313,English,lightblue,brown,lightorange,Exactly one player hit all of his shots,half-all-all,all-half-all,8,F,4887,NA
313,English,lightblue,seafoam,midnight,Player B shot perfectly,half-all-all,all-half-all,11,F,2571,NA
313,English,seafoam,yellow,lightorange,Every player hit none of his shots,none-half-half,half-half-none,10,F,3662,NA
313,English,pink,wheat,grey,Player A placed second,none-half-all,all-none-half,13,F,4910,NA
313,English,lightorange,yellow,darkorange,Player C made no shots,half-all-all,all-all-half,12,F,1794,NA
313,English,grey,lightblue,midnight,Player A tied with Player C,none-none-all,none-none-all,15,F,4367,NA
313,English,lavender,lightorange,seafoam,No player hit none of his shots,none-half-half,half-none-half,14,F,12586,NA
313,English,lavender,grey,midnight,Someone did better than Player B,half-all-all,all-all-half,17,F,3100,NA
313,English,royalblue,grey,midnight,Someone did better than Player A,half-half-half,half-half-half,16,F,4822,NA
313,English,wheat,lightblue,brown,Someone did better than Player C,half-all-all,all-half-all,19,F,4346,NA
313,English,darkorange,pink,grey,All the players are tied,none-none-none,none-none-none,18,T,2794,NA
313,English,pink,grey,darkorange,Player A was the star player of the round,most-none-all,most-none-all,-1,F,13593,no
313,English,lavender,lightorange,grey,Player A made none of his baskets,all-none-few,all-none-few,-3,F,10548,yes
313,English,royalblue,tan,midnight,Player C messed up,all-all-none,all-all-none,-2,T,6421,yes
314,English,seafoam,lightblue,darkorange,No player hit all of his shots,half-half-all,half-half-all,24,F,5047,NA
314,English,pink,midnight,lavender,All the players are tied,none-half-all,half-none-all,25,F,5224,NA
314,English,tan,midnight,yellow,Player B tied with Player C,none-none-none,none-none-none,26,T,6138,NA
314,English,lightblue,wheat,brown,Player A tied with Player B,all-all-all,all-all-all,27,T,6199,NA
314,English,yellow,seafoam,tan,Exactly one player hit all of his shots,half-half-half,half-half-half,20,F,4361,NA
314,English,midnight,seafoam,yellow,Every player hit none of his shots,none-none-half,none-none-half,21,F,6451,NA
314,English,tan,wheat,darkorange,Player A made no shots,none-none-half,none-half-none,22,T,9780,NA
314,English,lightorange,purple,grey,We have a clear loser,none-half-half,half-half-none,23,T,5263,NA
314,English,grey,wheat,tan,Player A placed second,half-half-all,half-half-all,28,F,7729,NA
314,English,yellow,lightorange,darkorange,Player C shot perfectly,none-all-all,none-all-all,1,T,4046,NA
314,English,brown,purple,lightblue,Player B made no shots,half-half-all,half-all-half,0,F,8219,NA
314,English,grey,darkorange,purple,Player A tied with Player C,none-none-half,half-none-none,3,F,6407,NA
314,English,purple,yellow,pink,Someone did better than Player A,all-all-all,all-all-all,2,F,6109,NA
314,English,lavender,royalblue,darkorange,Player B shot perfectly,none-all-all,all-all-none,5,T,4746,NA
314,English,purple,royalblue,grey,Every player hit all of his shots,half-half-all,all-half-half,4,F,6042,NA
314,English,lavender,seafoam,midnight,Every player hit some of his shots,all-all-all,all-all-all,7,T,6699,NA
314,English,grey,yellow,darkorange,No player hit none of his shots,half-half-all,half-half-all,6,F,9278,NA
314,English,seafoam,lavender,wheat,Player A shot perfectly,none-all-all,none-all-all,9,F,3497,NA
314,English,yellow,brown,lightorange,Player C placed second,none-half-half,none-half-half,8,F,16844,NA
314,English,tan,pink,royalblue,No player hit some of his shots,none-all-all,all-all-none,11,F,7528,NA
314,English,midnight,grey,tan,Player B placed second,none-half-all,all-half-none,10,T,6252,NA
314,English,brown,grey,wheat,Most of the players missed shots,half-all-all,half-all-all,13,F,4232,NA
314,English,royalblue,lavender,lightblue,Player C made no shots,none-all-all,all-all-none,12,T,4973,NA
314,English,yellow,grey,lightorange,Most of the players made shots,all-all-all,all-all-all,15,T,2911,NA
314,English,midnight,lightorange,pink,Exactly one player hit none of his shots,none-none-all,none-none-all,14,F,6889,NA
314,English,pink,royalblue,lightorange,Exactly one player hit some of his shots,none-none-half,none-none-half,17,T,10811,NA
314,English,pink,lightblue,yellow,Someone did better than Player B,none-half-all,none-half-all,16,T,5167,NA
314,English,wheat,midnight,pink,Someone did better than Player C,half-half-half,half-half-half,19,F,8926,NA
314,English,lightblue,wheat,seafoam,We have a clear winner,half-half-half,half-half-half,18,F,4302,NA
314,English,pink,wheat,royalblue,Player A was the star player of the round,most-none-all,most-none-all,-1,F,9314,yes
314,English,darkorange,lightblue,wheat,Player A made none of his baskets,all-none-few,all-none-few,-3,F,12240,yes
314,English,pink,darkorange,purple,Player C messed up,all-all-none,all-all-none,-2,T,7003,yes
315,english,purple,midnight,tan,Player C made no shots,half-all-all,all-half-all,24,F,5759,NA
315,english,grey,lightorange,seafoam,No player hit all of his shots,none-none-half,none-none-half,25,T,6073,NA
315,english,yellow,lightorange,wheat,Player B made no shots,none-all-all,all-all-none,26,F,4059,NA
315,english,lightblue,seafoam,tan,Every player hit all of his shots,half-all-all,half-all-all,27,F,5698,NA
315,english,seafoam,wheat,yellow,Every player hit none of his shots,none-none-none,none-none-none,20,T,3064,NA
315,english,lightorange,lavender,seafoam,Someone did better than Player B,none-none-all,none-none-all,21,T,4798,NA
315,english,lightorange,purple,yellow,Player A shot perfectly,none-half-half,none-half-half,22,F,5906,NA
315,english,brown,grey,midnight,Player C shot perfectly,all-all-all,all-all-all,23,T,4028,NA
315,english,grey,lightorange,lightblue,Player A tied with Player B,none-half-half,none-half-half,28,F,3749,NA
315,english,lavender,wheat,grey,Exactly one player hit all of his shots,half-half-half,half-half-half,1,F,5274,NA
315,english,lavender,brown,midnight,Most of the players made shots,none-none-half,none-none-half,0,F,5478,NA
315,english,wheat,tan,darkorange,Most of the players missed shots,none-all-all,all-all-none,3,F,4697,NA
315,english,purple,lightorange,royalblue,Player A placed second,none-half-half,half-half-none,2,F,10416,NA
315,english,purple,yellow,darkorange,Exactly one player hit none of his shots,none-none-none,none-none-none,5,F,4142,NA
315,english,lavender,lightblue,yellow,Someone did better than Player C,none-all-all,none-all-all,4,F,6380,NA
315,english,grey,purple,seafoam,Player B placed second,half-half-half,half-half-half,7,F,7453,NA
315,english,wheat,midnight,grey,Player C placed second,half-half-all,half-all-half,6,T,8179,NA
315,english,wheat,grey,pink,Player B shot perfectly,half-half-all,half-all-half,9,T,9087,NA
315,english,lavender,midnight,lightblue,Player A made no shots,none-half-all,none-half-all,8,T,7276,NA
315,english,purple,lightblue,darkorange,Player A tied with Player C,half-half-all,all-half-half,11,F,7018,NA
315,english,grey,lavender,lightorange,No player hit none of his shots,all-all-all,all-all-all,10,T,4371,NA
315,english,wheat,seafoam,tan,We have a clear winner,none-half-all,none-all-half,13,T,4142,NA
315,english,tan,purple,lightorange,We have a clear loser,none-none-half,none-none-half,12,F,3313,NA
315,english,midnight,royalblue,purple,All the players are tied,none-none-all,none-all-none,15,F,1708,NA
315,english,lightblue,brown,lavender,Someone did better than Player A,none-none-all,all-none-none,14,F,3161,NA
315,english,lavender,lightorange,royalblue,No player hit some of his shots,none-none-half,none-half-none,17,F,3127,NA
315,english,midnight,royalblue,brown,Every player hit some of his shots,none-none-all,all-none-none,16,F,2642,NA
315,english,tan,wheat,lavender,Player B tied with Player C,none-none-all,none-none-all,19,F,3132,NA
315,english,lightorange,lightblue,yellow,Exactly one player hit some of his shots,none-half-all,half-none-all,18,F,7790,NA
315,english,lavender,yellow,midnight,Player A was the star player of the round,most-none-all,most-none-all,-1,F,8040,yes
315,english,royalblue,darkorange,lightorange,Player A made none of his baskets,all-none-few,all-none-few,-3,F,14303,yes
315,english,lightorange,brown,darkorange,Player C messed up,all-all-none,all-all-none,-2,T,7751,yes
316,English,yellow,tan,pink,We have a clear loser,all-all-all,all-all-all,24,F,3000,NA
316,English,brown,darkorange,royalblue,We have a clear winner,none-none-all,none-all-none,25,T,3504,NA
316,English,midnight,darkorange,lightblue,Player B shot perfectly,none-none-half,none-none-half,26,F,3221,NA
316,English,midnight,lightblue,grey,Player C placed second,none-none-none,none-none-none,27,F,2571,NA
316,English,wheat,seafoam,purple,Every player hit some of his shots,all-all-all,all-all-all,20,T,2650,NA
316,English,brown,midnight,wheat,Player A placed second,none-none-half,none-none-half,21,T,4576,NA
316,English,midnight,lightblue,wheat,Most of the players missed shots,none-none-none,none-none-none,22,T,2879,NA
316,English,seafoam,wheat,lavender,Player B placed second,none-none-none,none-none-none,23,F,3078,NA
316,English,seafoam,wheat,pink,Every player hit all of his shots,none-none-half,none-none-half,28,F,3033,NA
316,English,seafoam,darkorange,royalblue,Player A tied with Player C,half-all-all,all-all-half,1,F,5414,NA
316,English,tan,seafoam,lavender,No player hit some of his shots,half-all-all,all-half-all,0,F,8724,NA
316,English,wheat,seafoam,pink,Player A made no shots,none-all-all,all-none-all,3,F,3595,NA
316,English,grey,pink,wheat,No player hit all of his shots,none-half-half,none-half-half,2,T,4282,NA
316,English,midnight,seafoam,tan,Every player hit none of his shots,half-all-all,half-all-all,5,F,3932,NA
316,English,brown,wheat,seafoam,Player C shot perfectly,none-none-half,none-half-none,4,F,4398,NA
316,English,darkorange,wheat,seafoam,Someone did better than Player A,half-half-all,all-half-half,7,F,5211,NA
316,English,lightblue,brown,lavender,No player hit none of his shots,half-half-all,half-all-half,6,T,7965,NA
316,English,wheat,darkorange,lightorange,Exactly one player hit all of his shots,none-all-all,all-none-all,9,F,4566,NA
316,English,midnight,wheat,seafoam,Exactly one player hit none of his shots,none-none-none,none-none-none,8,F,4259,NA
316,English,pink,wheat,lightblue,Player B tied with Player C,all-all-all,all-all-all,11,T,3841,NA
316,English,darkorange,pink,midnight,Someone did better than Player B,all-all-all,all-all-all,10,F,4892,NA
316,English,lavender,purple,seafoam,Exactly one player hit some of his shots,none-none-none,none-none-none,13,F,3416,NA
316,English,seafoam,grey,midnight,Most of the players made shots,none-all-all,all-none-all,12,T,3930,NA
316,English,purple,pink,midnight,All the players are tied,none-none-half,none-half-none,15,F,3504,NA
316,English,lightblue,wheat,midnight,Someone did better than Player C,half-all-all,half-all-all,14,F,3634,NA
316,English,midnight,royalblue,tan,Player C made no shots,half-half-all,half-half-all,17,F,3387,NA
316,English,royalblue,grey,lavender,Player A tied with Player B,none-none-all,none-all-none,16,F,3442,NA
316,English,midnight,seafoam,grey,Player B made no shots,half-half-all,half-half-all,19,F,3163,NA
316,English,purple,seafoam,midnight,Player A shot perfectly,none-half-all,none-half-all,18,F,4364,NA
316,English,seafoam,darkorange,pink,Player A was the star player of the round,most-none-all,most-none-all,-1,F,6640,yes
316,English,lightblue,tan,grey,Player A made none of his baskets,all-none-few,all-none-few,-3,F,10096,yes
316,English,wheat,pink,lightorange,Player C messed up,all-all-none,all-all-none,-2,T,6910,yes
317,English,royalblue,midnight,lightorange,Exactly one player hit all of his shots,half-half-all,half-all-half,24,T,3423,NA
317,English,lightblue,grey,purple,Player C shot perfectly,half-half-half,half-half-half,25,F,2287,NA
317,English,darkorange,purple,royalblue,Every player hit all of his shots,none-none-half,half-none-none,26,F,3238,NA
317,English,tan,seafoam,pink,We have a clear loser,none-half-all,half-all-none,27,T,3101,NA
317,English,pink,brown,royalblue,Player B shot perfectly,half-all-all,all-half-all,20,F,2375,NA
317,English,royalblue,lavender,lightorange,Player B placed second,none-none-none,none-none-none,21,F,1991,NA
317,English,tan,lightblue,royalblue,Someone did better than Player C,none-all-all,none-all-all,22,F,3486,NA
317,English,seafoam,lightorange,midnight,Someone did better than Player A,half-half-half,half-half-half,23,F,2351,NA
317,English,pink,lavender,grey,Most of the players missed shots,none-none-none,none-none-none,28,T,2662,NA
317,English,midnight,lightblue,purple,Every player hit none of his shots,none-half-all,half-none-all,1,F,5859,NA
317,English,royalblue,purple,brown,Player B tied with Player C,half-half-all,half-all-half,0,F,8371,NA
317,English,pink,lightorange,lightblue,Player A shot perfectly,none-half-all,none-half-all,3,F,3349,NA
317,English,grey,purple,wheat,Player A tied with Player C,none-none-none,none-none-none,2,T,3320,NA
317,English,wheat,lightorange,lavender,Player A tied with Player B,half-all-all,half-all-all,5,F,5967,NA
317,English,lightorange,lightblue,pink,Player B made no shots,half-all-all,half-all-all,4,F,3623,NA
317,English,pink,tan,grey,Player C placed second,none-none-none,none-none-none,7,F,5671,NA
317,English,yellow,purple,midnight,All the players are tied,none-none-half,half-none-none,6,F,2597,NA
317,English,lightblue,darkorange,brown,Player C made no shots,none-half-half,half-none-half,9,F,2143,NA
317,English,yellow,tan,darkorange,No player hit some of his shots,none-none-none,none-none-none,8,T,4471,NA
317,English,darkorange,yellow,purple,Someone did better than Player B,none-none-half,half-none-none,11,T,3784,NA
317,English,darkorange,pink,brown,Exactly one player hit none of his shots,none-none-none,none-none-none,10,F,3727,NA
317,English,brown,lavender,grey,We have a clear winner,half-all-all,half-all-all,13,F,3038,NA
317,English,lightblue,yellow,grey,Player A placed second,none-none-half,half-none-none,12,F,2895,NA
317,English,lavender,lightorange,seafoam,Every player hit some of his shots,half-half-all,half-half-all,15,T,4728,NA
317,English,purple,brown,royalblue,Player A made no shots,none-none-all,none-none-all,14,T,5700,NA
317,English,darkorange,seafoam,lightblue,No player hit all of his shots,none-none-all,none-none-all,17,F,2935,NA
317,English,purple,brown,yellow,No player hit none of his shots,half-half-all,all-half-half,16,T,6173,NA
317,English,pink,purple,midnight,Most of the players made shots,all-all-all,all-all-all,19,T,2400,NA
317,English,lightblue,brown,purple,Exactly one player hit some of his shots,none-half-all,none-half-all,18,T,6478,NA
317,English,lightorange,lavender,yellow,Player A was the star player of the round,most-none-all,most-none-all,-1,F,7448,yes
317,English,tan,lightorange,brown,Player A made none of his baskets,all-none-few,all-none-few,-3,F,10614,yes
317,English,wheat,tan,lavender,Player C messed up,all-all-none,all-all-none,-2,T,6203,yes
318,English,darkorange,lightorange,seafoam,Player B tied with Player C,none-none-none,none-none-none,24,T,4236,NA
318,English,lavender,darkorange,tan,Most of the players missed shots,none-none-all,none-all-none,25,T,3507,NA
318,English,midnight,lavender,lightblue,Player B made no shots,none-none-all,none-none-all,26,T,2902,NA
318,English,brown,midnight,tan,Player C shot perfectly,none-half-all,all-none-half,27,F,4213,NA
318,English,lavender,darkorange,lightblue,Player A tied with Player B,none-none-half,none-half-none,20,F,6162,NA
318,English,lavender,brown,darkorange,Player A shot perfectly,half-half-half,half-half-half,21,F,3320,NA
318,English,brown,grey,lightblue,We have a clear winner,none-none-all,none-all-none,22,T,4087,NA
318,English,lavender,pink,lightblue,Exactly one player hit all of his shots,none-half-all,all-none-half,23,T,4335,NA
318,English,tan,darkorange,yellow,Someone did better than Player A,half-half-all,half-half-all,28,T,5606,NA
318,English,pink,wheat,tan,Every player hit none of his shots,half-half-all,half-all-half,1,F,10982,NA
318,English,wheat,tan,seafoam,Most of the players made shots,none-all-all,none-all-all,0,T,8385,NA
318,English,wheat,lavender,midnight,Player B shot perfectly,none-none-none,none-none-none,3,F,4522,NA
318,English,purple,yellow,pink,No player hit none of his shots,half-half-half,half-half-half,2,F,5149,NA
318,English,purple,seafoam,tan,Player B placed second,none-none-all,none-none-all,5,F,13111,NA
318,English,yellow,darkorange,lavender,Every player hit some of his shots,none-half-half,half-half-none,4,F,4692,NA
318,English,seafoam,pink,lightorange,Someone did better than Player B,half-all-all,all-all-half,7,F,6560,NA
318,English,darkorange,lightblue,midnight,No player hit some of his shots,none-none-all,none-all-none,6,F,4640,NA
318,English,midnight,yellow,purple,Exactly one player hit none of his shots,half-all-all,half-all-all,9,F,5919,NA
318,English,pink,yellow,purple,Every player hit all of his shots,half-all-all,all-half-all,8,F,5024,NA
318,English,royalblue,lavender,grey,Someone did better than Player C,half-all-all,all-all-half,11,T,4471,NA
318,English,lightorange,darkorange,yellow,Exactly one player hit some of his shots,none-all-all,all-none-all,10,F,4323,NA
318,English,royalblue,purple,tan,Player C placed second,half-half-all,all-half-half,13,T,7783,NA
318,English,lavender,darkorange,grey,No player hit all of his shots,half-half-all,half-all-half,12,F,3747,NA
318,English,midnight,purple,yellow,All the players are tied,none-none-none,none-none-none,15,T,3334,NA
318,English,royalblue,seafoam,grey,Player A placed second,none-none-none,none-none-none,14,F,3987,NA
318,English,wheat,midnight,seafoam,We have a clear loser,none-half-all,none-all-half,17,T,5224,NA
318,English,yellow,brown,tan,Player A tied with Player C,half-half-all,half-all-half,16,T,5745,NA
318,English,tan,wheat,lightblue,Player C made no shots,half-all-all,half-all-all,19,F,4436,NA
318,English,brown,darkorange,lightorange,Player A made no shots,none-half-all,all-none-half,18,F,5065,NA
318,English,yellow,purple,brown,Player A was the star player of the round,most-none-all,most-none-all,-1,F,7102,yes
318,English,brown,wheat,seafoam,Player A made none of his baskets,all-none-few,all-none-few,-3,F,16989,yes
318,English,purple,lightorange,pink,Player C messed up,all-all-none,all-all-none,-2,T,10297,yes
319,English,purple,darkorange,brown,Player A made no shots,all-all-all,all-all-all,24,F,1825,NA
319,English,lavender,midnight,tan,We have a clear winner,all-all-all,all-all-all,25,F,1885,NA
319,English,lavender,brown,tan,Player B tied with Player C,half-half-all,all-half-half,26,T,5104,NA
319,English,lavender,darkorange,midnight,Player C shot perfectly,half-half-half,half-half-half,27,F,5365,NA
319,English,lavender,darkorange,seafoam,Player A shot perfectly,none-none-none,none-none-none,20,F,1983,NA
319,English,lavender,lightorange,wheat,Player C made no shots,none-half-half,half-none-half,21,F,2351,NA
319,English,grey,wheat,midnight,No player hit none of his shots,none-half-all,none-half-all,22,F,4222,NA
319,English,lightblue,brown,wheat,Player B shot perfectly,none-all-all,all-all-none,23,T,2439,NA
319,English,wheat,grey,lightblue,Player B made no shots,half-half-all,half-all-half,28,F,2568,NA
319,English,purple,tan,pink,Player A tied with Player C,half-all-all,all-all-half,1,F,5245,NA
319,English,grey,wheat,yellow,Someone did better than Player B,none-none-all,all-none-none,0,T,4063,NA
319,English,royalblue,grey,pink,Every player hit some of his shots,half-half-all,half-half-all,3,T,3774,NA
319,English,grey,lightblue,seafoam,Player A placed second,none-none-none,none-none-none,2,F,4168,NA
319,English,yellow,brown,royalblue,No player hit some of his shots,half-all-all,half-all-all,5,F,2974,NA
319,English,seafoam,lightorange,purple,No player hit all of his shots,half-all-all,half-all-all,4,F,3319,NA
319,English,purple,pink,lightorange,Every player hit none of his shots,none-none-all,none-all-none,7,F,2295,NA
319,English,royalblue,brown,lightorange,All the players are tied,half-half-all,half-all-half,6,F,4335,NA
319,English,wheat,lightblue,royalblue,Player B placed second,half-half-half,half-half-half,9,F,6960,NA
319,English,tan,lightblue,midnight,Someone did better than Player C,half-all-all,half-all-all,8,F,2911,NA
319,English,purple,pink,midnight,Exactly one player hit some of his shots,none-none-none,none-none-none,11,F,2702,NA
319,English,midnight,seafoam,pink,Player C placed second,none-none-none,none-none-none,10,F,2596,NA
319,English,brown,darkorange,seafoam,Every player hit all of his shots,half-half-all,half-all-half,13,F,2999,NA
319,English,seafoam,midnight,yellow,Exactly one player hit all of his shots,none-none-none,none-none-none,12,F,3325,NA
319,English,lightblue,midnight,lavender,Exactly one player hit none of his shots,none-all-all,all-all-none,15,T,3095,NA
319,English,seafoam,midnight,darkorange,Most of the players made shots,none-none-half,none-none-half,14,F,2975,NA
319,English,midnight,wheat,seafoam,Player A tied with Player B,all-all-all,all-all-all,17,T,3287,NA
319,English,lavender,brown,darkorange,Most of the players missed shots,all-all-all,all-all-all,16,F,4086,NA
319,English,seafoam,lavender,wheat,We have a clear loser,all-all-all,all-all-all,19,F,2415,NA
319,English,royalblue,grey,brown,Someone did better than Player A,none-none-half,none-half-none,18,T,2504,NA
319,English,seafoam,lavender,brown,Player A was the star player of the round,most-none-all,most-none-all,-1,F,7512,yes
319,English,seafoam,tan,lightblue,Player A made none of his baskets,all-none-few,all-none-few,-3,F,9055,yes
319,English,royalblue,lightorange,tan,Player C messed up,all-all-none,all-all-none,-2,T,6203,yes
320,English,royalblue,midnight,lavender,No player hit some of his shots,none-none-all,all-none-none,24,F,24451,NA
320,English,tan,grey,purple,Most of the players missed shots,none-none-half,half-none-none,25,T,3604,NA
320,English,pink,tan,wheat,Someone did better than Player A,none-all-all,all-none-all,26,F,2915,NA
320,English,purple,lavender,darkorange,Player A made no shots,none-half-half,half-half-none,27,F,2404,NA
320,English,darkorange,lightorange,royalblue,Every player hit some of his shots,half-half-all,half-half-all,20,T,6236,NA
320,English,midnight,pink,purple,Player A placed second,none-none-all,none-all-none,21,T,7292,NA
320,English,purple,pink,grey,Player C shot perfectly,none-all-all,all-none-all,22,T,2981,NA
320,English,brown,wheat,lightorange,Exactly one player hit some of his shots,all-all-all,all-all-all,23,F,4914,NA
320,English,midnight,purple,lavender,Exactly one player hit none of his shots,half-half-half,half-half-half,28,F,3677,NA
320,English,lightblue,royalblue,brown,We have a clear loser,none-none-half,none-half-none,1,F,9665,NA
320,English,seafoam,yellow,brown,Player B shot perfectly,half-half-all,half-all-half,0,T,4352,NA
320,English,royalblue,lightorange,midnight,Player A tied with Player C,none-all-all,none-all-all,3,F,3348,NA
320,English,darkorange,lightorange,purple,Someone did better than Player C,none-none-half,none-half-none,2,T,4251,NA
320,English,grey,lavender,yellow,Player A tied with Player B,none-half-all,half-all-none,5,F,4892,NA
320,English,brown,wheat,tan,All the players are tied,none-all-all,none-all-all,4,F,2451,NA
320,English,grey,wheat,tan,Player B made no shots,half-all-all,all-all-half,7,F,3932,NA
320,English,pink,tan,lavender,Exactly one player hit all of his shots,half-half-all,half-half-all,6,T,5205,NA
320,English,pink,darkorange,wheat,No player hit none of his shots,none-all-all,all-all-none,9,F,14651,NA
320,English,purple,midnight,seafoam,Every player hit all of his shots,half-half-all,half-all-half,8,F,4409,NA
320,English,darkorange,wheat,lightblue,Player B tied with Player C,none-none-all,none-all-none,11,F,2836,NA
320,English,seafoam,brown,darkorange,We have a clear winner,none-all-all,none-all-all,10,F,3019,NA
320,English,wheat,lightorange,tan,Most of the players made shots,none-none-none,none-none-none,13,F,3653,NA
320,English,grey,royalblue,darkorange,Every player hit none of his shots,none-none-none,none-none-none,12,T,7005,NA
320,English,lightblue,wheat,yellow,Player B placed second,none-all-all,all-all-none,15,F,6454,NA
320,English,lightblue,lightorange,grey,No player hit all of his shots,none-all-all,none-all-all,14,F,3918,NA
320,English,seafoam,darkorange,lavender,Player A shot perfectly,all-all-all,all-all-all,17,T,3845,NA
320,English,pink,grey,seafoam,Player C made no shots,none-half-all,half-none-all,16,F,3498,NA
320,English,seafoam,lightblue,grey,Player C placed second,none-half-half,half-none-half,19,T,8804,NA
320,English,royalblue,purple,wheat,Someone did better than Player B,none-none-none,none-none-none,18,F,3261,NA
320,English,darkorange,purple,yellow,Player A was the star player of the round,most-none-all,most-none-all,-1,F,13655,yes
320,English,lavender,pink,seafoam,Player A made none of his baskets,all-none-few,all-none-few,-3,F,11341,yes
320,English,lavender,midnight,lightblue,Player C messed up,all-all-none,all-all-none,-2,T,7805,yes
321,ENGLISH,pink,lavender,lightorange,No player hit some of his shots,none-half-all,none-half-all,24,F,2958,NA
321,ENGLISH,lightblue,yellow,midnight,No player hit all of his shots,none-all-all,all-all-none,25,F,3003,NA
321,ENGLISH,pink,wheat,seafoam,No player hit none of his shots,half-all-all,half-all-all,26,F,3557,NA
321,ENGLISH,pink,lavender,brown,Player B tied with Player C,none-all-all,all-none-all,27,F,2620,NA
321,ENGLISH,darkorange,wheat,royalblue,Every player hit none of his shots,none-none-none,none-none-none,20,T,2197,NA
321,ENGLISH,pink,brown,midnight,Player C made no shots,half-all-all,half-all-all,21,F,11316,NA
321,ENGLISH,midnight,brown,lightblue,Most of the players missed shots,half-half-half,half-half-half,22,T,7453,NA
321,ENGLISH,royalblue,grey,yellow,Every player hit all of his shots,none-half-half,half-half-none,23,F,1898,NA
321,ENGLISH,purple,lightorange,royalblue,Someone did better than Player A,half-all-all,all-all-half,28,F,2508,NA
321,ENGLISH,lightblue,pink,yellow,Player A tied with Player C,none-none-all,none-all-none,1,T,4171,NA
321,ENGLISH,tan,brown,midnight,Player A shot perfectly,none-none-none,none-none-none,0,F,5444,NA
321,ENGLISH,grey,purple,royalblue,Every player hit some of his shots,half-half-all,half-all-half,3,T,2788,NA
321,ENGLISH,royalblue,midnight,purple,We have a clear winner,half-half-all,all-half-half,2,T,1939,NA
321,ENGLISH,brown,seafoam,darkorange,Someone did better than Player C,half-all-all,half-all-all,5,F,5812,NA
321,ENGLISH,grey,darkorange,tan,Most of the players made shots,none-all-all,all-all-none,4,F,2964,NA
321,ENGLISH,wheat,royalblue,purple,Someone did better than Player B,all-all-all,all-all-all,7,F,2420,NA
321,ENGLISH,darkorange,grey,lavender,Player C shot perfectly,none-all-all,all-none-all,6,T,2380,NA
321,ENGLISH,seafoam,lightorange,lavender,Player A tied with Player B,none-none-half,none-none-half,9,T,2753,NA
321,ENGLISH,tan,lightblue,pink,Player C placed second,half-all-all,all-all-half,8,F,3723,NA
321,ENGLISH,purple,lightblue,wheat,Player B made no shots,none-none-none,none-none-none,11,T,2366,NA
321,ENGLISH,lightorange,midnight,darkorange,Player A made no shots,none-half-all,half-all-none,10,F,2939,NA
321,ENGLISH,seafoam,lightblue,grey,Player A placed second,half-half-half,half-half-half,13,F,2763,NA
321,ENGLISH,brown,tan,royalblue,Exactly one player hit some of his shots,half-half-all,all-half-half,12,T,3227,NA
321,ENGLISH,wheat,lightorange,brown,All the players are tied,none-none-all,none-all-none,15,F,2964,NA
321,ENGLISH,yellow,tan,wheat,Player B placed second,none-none-all,none-all-none,14,F,2268,NA
321,ENGLISH,royalblue,grey,lavender,Exactly one player hit all of his shots,half-half-half,half-half-half,17,F,2212,NA
321,ENGLISH,yellow,grey,midnight,Player B shot perfectly,half-half-half,half-half-half,16,F,1908,NA
321,ENGLISH,yellow,tan,pink,Exactly one player hit none of his shots,half-half-all,half-all-half,19,F,2677,NA
321,ENGLISH,seafoam,wheat,midnight,We have a clear loser,all-all-all,all-all-all,18,F,1627,NA
321,ENGLISH,grey,lavender,seafoam,Player A was the star player of the round,most-none-all,most-none-all,-1,F,4973,yes
321,ENGLISH,pink,wheat,lightorange,Player A made none of his baskets,all-none-few,all-none-few,-3,F,231555,yes
321,ENGLISH,pink,lightorange,tan,Player C messed up,all-all-none,all-all-none,-2,T,5009,yes
322,English,darkorange,yellow,lightorange,Player C placed second,none-none-all,none-all-none,24,T,6191,NA
322,English,royalblue,purple,lightorange,Player B shot perfectly,all-all-all,all-all-all,25,T,2031,NA
322,English,tan,seafoam,lightorange,No player hit all of his shots,all-all-all,all-all-all,26,F,2567,NA
322,English,wheat,brown,lavender,Every player hit none of his shots,all-all-all,all-all-all,27,F,3726,NA
322,English,seafoam,darkorange,lavender,All the players are tied,none-half-half,half-none-half,20,F,12711,NA
322,English,purple,yellow,wheat,Player C made no shots,none-none-all,none-all-none,21,T,3934,NA
322,English,pink,darkorange,tan,Player A placed second,none-none-all,none-none-all,22,T,7479,NA
322,English,wheat,seafoam,royalblue,Most of the players missed shots,none-all-all,all-all-none,23,F,2223,NA
322,English,brown,seafoam,lightorange,Player A made no shots,none-all-all,all-none-all,28,F,2095,NA
322,English,lightblue,royalblue,tan,Player B tied with Player C,none-none-none,none-none-none,1,T,5103,NA
322,English,seafoam,lavender,wheat,We have a clear winner,none-none-none,none-none-none,0,F,4338,NA
322,English,brown,purple,royalblue,Exactly one player hit some of his shots,none-none-half,half-none-none,3,T,4583,NA
322,English,lightblue,lightorange,tan,Every player hit some of his shots,half-half-all,half-all-half,2,T,3838,NA
322,English,yellow,seafoam,purple,Someone did better than Player A,none-none-all,none-none-all,5,T,4536,NA
322,English,lightorange,lightblue,yellow,No player hit some of his shots,none-all-all,all-all-none,4,F,2758,NA
322,English,seafoam,lightorange,lightblue,Player B placed second,half-all-all,all-all-half,7,F,6006,NA
322,English,lavender,seafoam,darkorange,Someone did better than Player B,none-half-half,half-half-none,6,F,3759,NA
322,English,grey,yellow,royalblue,Every player hit all of his shots,none-none-all,all-none-none,9,F,3552,NA
322,English,wheat,grey,seafoam,Player C shot perfectly,none-none-none,none-none-none,8,F,2391,NA
322,English,midnight,lavender,royalblue,Exactly one player hit all of his shots,none-none-half,none-none-half,11,F,3822,NA
322,English,royalblue,tan,brown,Player A tied with Player B,none-half-half,half-none-half,10,F,2903,NA
322,English,lavender,grey,pink,Most of the players made shots,none-half-all,all-half-none,13,T,3446,NA
322,English,seafoam,pink,purple,No player hit none of his shots,all-all-all,all-all-all,12,T,4062,NA
322,English,lavender,lightorange,purple,Exactly one player hit none of his shots,none-none-all,none-none-all,15,F,4365,NA
322,English,brown,royalblue,seafoam,We have a clear loser,none-half-half,half-half-none,14,T,3128,NA
322,English,tan,grey,darkorange,Someone did better than Player C,none-half-half,half-none-half,17,F,3335,NA
322,English,tan,purple,darkorange,Player B made no shots,all-all-all,all-all-all,16,F,2639,NA
322,English,royalblue,pink,grey,Player A shot perfectly,none-none-half,none-none-half,19,F,3311,NA
322,English,royalblue,lightorange,lightblue,Player A tied with Player C,none-half-half,none-half-half,18,F,2560,NA
322,English,midnight,lavender,purple,Player A was the star player of the round,most-none-all,most-none-all,-1,F,5966,yes
322,English,lavender,seafoam,brown,Player A made none of his baskets,all-none-few,all-none-few,-3,F,8740,yes
322,English,midnight,brown,tan,Player C messed up,all-all-none,all-all-none,-2,T,5887,yes
323,english,lightblue,tan,brown,No player hit all of his shots,none-none-none,none-none-none,24,T,3184,NA
323,english,seafoam,pink,tan,Exactly one player hit all of his shots,half-all-all,all-half-all,25,T,3982,NA
323,english,purple,yellow,wheat,Someone did better than Player C,all-all-all,all-all-all,26,F,2872,NA
323,english,purple,pink,darkorange,We have a clear loser,none-none-half,none-none-half,27,F,2985,NA
323,english,seafoam,pink,lightorange,Player B shot perfectly,none-none-half,none-half-none,20,F,5041,NA
323,english,midnight,pink,wheat,Someone did better than Player A,none-none-all,none-none-all,21,T,4298,NA
323,english,yellow,lightblue,royalblue,Player B placed second,none-none-all,none-none-all,22,T,3080,NA
323,english,brown,tan,pink,Player A shot perfectly,none-none-none,none-none-none,23,F,1893,NA
323,english,seafoam,royalblue,brown,No player hit none of his shots,none-half-half,none-half-half,28,F,5940,NA
323,english,pink,royalblue,wheat,Player B made no shots,none-none-all,none-all-none,1,F,3312,NA
323,english,pink,seafoam,yellow,Every player hit none of his shots,none-none-all,none-all-none,0,F,4522,NA
323,english,grey,midnight,pink,Player C made no shots,none-half-all,half-none-all,3,F,3168,NA
323,english,lightorange,purple,midnight,Most of the players missed shots,none-none-none,none-none-none,2,T,3638,NA
323,english,lightblue,midnight,pink,Every player hit some of his shots,none-half-half,none-half-half,5,F,3495,NA
323,english,tan,pink,purple,Player A placed second,none-none-none,none-none-none,4,F,4017,NA
323,english,lavender,royalblue,midnight,Someone did better than Player B,none-none-all,none-all-none,7,F,6399,NA
323,english,seafoam,darkorange,lavender,Exactly one player hit some of his shots,half-all-all,all-all-half,6,F,4653,NA
323,english,purple,tan,seafoam,Exactly one player hit none of his shots,none-half-all,all-none-half,9,T,2543,NA
323,english,tan,brown,darkorange,All the players are tied,all-all-all,all-all-all,8,T,2567,NA
323,english,midnight,lightorange,wheat,Player A made no shots,none-half-all,all-half-none,11,F,2313,NA
323,english,royalblue,tan,wheat,Player C placed second,none-none-half,none-half-none,10,T,3234,NA
323,english,grey,seafoam,midnight,Most of the players made shots,none-none-all,all-none-none,13,F,2322,NA
323,english,midnight,pink,purple,Player A tied with Player C,half-half-half,half-half-half,12,T,2559,NA
323,english,grey,darkorange,lavender,Every player hit all of his shots,none-half-half,half-none-half,15,F,2800,NA
323,english,purple,yellow,lightblue,No player hit some of his shots,none-all-all,all-all-none,14,F,5942,NA
323,english,pink,purple,lightblue,Player A tied with Player B,none-none-half,none-none-half,17,T,3969,NA
323,english,tan,royalblue,lightblue,We have a clear winner,half-half-half,half-half-half,16,F,7556,NA
323,english,tan,seafoam,royalblue,Player B tied with Player C,half-half-half,half-half-half,19,T,3305,NA
323,english,midnight,grey,lightorange,Player C shot perfectly,none-all-all,all-all-none,18,F,2979,NA
323,english,darkorange,royalblue,purple,Player A was the star player of the round,most-none-all,most-none-all,-1,F,8411,yes
323,english,darkorange,lavender,yellow,Player A made none of his baskets,all-none-few,all-none-few,-3,F,8016,yes
323,english,midnight,lightblue,yellow,Player C messed up,all-all-none,all-all-none,-2,T,10545,yes
324,English,purple,lightorange,lightblue,Player B made no shots,none-half-half,none-half-half,24,F,3028,NA
324,English,midnight,yellow,purple,Player C placed second,none-half-half,none-half-half,25,F,4192,NA
324,English,midnight,tan,wheat,Every player hit all of his shots,half-half-half,half-half-half,26,F,4019,NA
324,English,brown,midnight,darkorange,We have a clear loser,half-half-all,all-half-half,27,F,3593,NA
324,English,pink,lightblue,lightorange,Player C shot perfectly,none-none-none,none-none-none,20,F,2880,NA
324,English,wheat,tan,pink,Player A placed second,half-half-half,half-half-half,21,F,4158,NA
324,English,midnight,darkorange,lavender,Someone did better than Player A,half-half-all,all-half-half,22,F,3778,NA
324,English,yellow,brown,lightorange,Player B shot perfectly,none-none-half,none-half-none,23,F,2849,NA
324,English,tan,lightblue,lightorange,Someone did better than Player C,none-none-all,none-all-none,28,T,4902,NA
324,English,tan,royalblue,pink,Exactly one player hit some of his shots,half-half-half,half-half-half,1,F,6529,NA
324,English,wheat,lightorange,lightblue,Player C made no shots,none-half-all,half-all-none,0,T,6020,NA
324,English,purple,lightblue,wheat,All the players are tied,none-all-all,all-none-all,3,F,4162,NA
324,English,darkorange,midnight,pink,Player A tied with Player C,none-none-half,half-none-none,2,F,4334,NA
324,English,grey,midnight,lavender,Player A tied with Player B,half-half-half,half-half-half,5,T,5729,NA
324,English,pink,purple,midnight,Exactly one player hit none of his shots,none-none-all,none-none-all,4,F,6503,NA
324,English,midnight,pink,royalblue,Player A made no shots,none-none-all,all-none-none,7,F,5082,NA
324,English,lightblue,midnight,yellow,Player A shot perfectly,none-half-all,all-none-half,6,T,4490,NA
324,English,lightblue,seafoam,midnight,No player hit some of his shots,all-all-all,all-all-all,9,F,4645,NA
324,English,purple,royalblue,grey,Most of the players missed shots,half-half-all,half-all-half,8,T,6682,NA
324,English,wheat,lightorange,brown,Player B placed second,all-all-all,all-all-all,11,F,3544,NA
324,English,lightorange,lavender,midnight,Player B tied with Player C,none-none-none,none-none-none,10,T,4570,NA
324,English,grey,darkorange,pink,No player hit none of his shots,half-half-all,all-half-half,13,T,6030,NA
324,English,midnight,wheat,grey,Exactly one player hit all of his shots,half-half-half,half-half-half,12,F,13014,NA
324,English,midnight,darkorange,pink,Every player hit none of his shots,half-half-all,half-half-all,15,F,4617,NA
324,English,lightblue,lavender,darkorange,No player hit all of his shots,none-half-all,half-none-all,14,F,4450,NA
324,English,pink,lightblue,seafoam,Most of the players made shots,none-half-half,none-half-half,17,T,6323,NA
324,English,grey,seafoam,brown,Every player hit some of his shots,half-all-all,all-half-all,16,T,4921,NA
324,English,seafoam,brown,purple,Someone did better than Player B,all-all-all,all-all-all,19,F,5094,NA
324,English,lightblue,purple,grey,We have a clear winner,all-all-all,all-all-all,18,F,3392,NA
324,English,yellow,tan,brown,Player A was the star player of the round,most-none-all,most-none-all,-1,F,7010,yes
324,English,midnight,grey,lightorange,Player A made none of his baskets,all-none-few,all-none-few,-3,F,12571,yes
324,English,seafoam,darkorange,wheat,Player C messed up,all-all-none,all-all-none,-2,T,6995,yes
325,ENGLISH,wheat,seafoam,yellow,Player C made no shots,half-all-all,all-all-half,24,F,3543,NA
325,ENGLISH,lightorange,lavender,lightblue,Player C placed second,half-half-all,half-half-all,25,F,6431,NA
325,ENGLISH,lightorange,pink,lavender,Someone did better than Player A,half-all-all,all-all-half,26,F,66310,NA
325,ENGLISH,grey,lightorange,wheat,Player A made no shots,all-all-all,all-all-all,27,F,6175,NA
325,ENGLISH,lightblue,brown,lavender,Player A tied with Player B,none-none-none,none-none-none,20,T,2800,NA
325,ENGLISH,seafoam,wheat,brown,Player A tied with Player C,half-all-all,half-all-all,21,F,4664,NA
325,ENGLISH,lightblue,grey,darkorange,Most of the players made shots,none-none-all,none-all-none,22,F,4850,NA
325,ENGLISH,yellow,brown,pink,Every player hit all of his shots,none-half-all,none-half-all,23,F,7471,NA
325,ENGLISH,lightblue,lavender,brown,No player hit some of his shots,half-all-all,all-half-all,28,F,3960,NA
325,ENGLISH,lightorange,seafoam,darkorange,Exactly one player hit none of his shots,all-all-all,all-all-all,1,F,6228,NA
325,ENGLISH,grey,pink,purple,No player hit all of his shots,none-none-half,half-none-none,0,T,10149,NA
325,ENGLISH,darkorange,purple,pink,Player C shot perfectly,none-none-half,half-none-none,3,F,3095,NA
325,ENGLISH,grey,pink,wheat,Every player hit some of his shots,half-half-half,half-half-half,2,T,3120,NA
325,ENGLISH,lightorange,darkorange,royalblue,Player B made no shots,none-none-all,all-none-none,5,T,3734,NA
325,ENGLISH,seafoam,tan,brown,Most of the players missed shots,none-none-none,none-none-none,4,T,5853,NA
325,ENGLISH,darkorange,seafoam,brown,Player B placed second,half-half-half,half-half-half,7,F,60822,NA
325,ENGLISH,midnight,wheat,tan,Exactly one player hit some of his shots,half-half-half,half-half-half,6,F,7625,NA
325,ENGLISH,midnight,wheat,purple,Player B tied with Player C,none-none-half,half-none-none,9,T,4143,NA
325,ENGLISH,brown,seafoam,yellow,Player A shot perfectly,none-all-all,all-none-all,8,T,5375,NA
325,ENGLISH,brown,lavender,purple,Player B shot perfectly,none-none-all,none-all-none,11,T,2863,NA
325,ENGLISH,lightblue,brown,midnight,Exactly one player hit all of his shots,all-all-all,all-all-all,10,F,5702,NA
325,ENGLISH,seafoam,wheat,lightorange,Someone did better than Player B,half-half-half,half-half-half,13,F,7525,NA
325,ENGLISH,midnight,grey,purple,Every player hit none of his shots,none-half-half,none-half-half,12,F,4573,NA
325,ENGLISH,royalblue,wheat,grey,We have a clear winner,half-half-all,half-all-half,15,T,4098,NA
325,ENGLISH,grey,purple,lavender,Someone did better than Player C,none-half-half,none-half-half,14,F,4856,NA
325,ENGLISH,purple,tan,lightblue,Player A placed second,none-none-all,none-all-none,17,T,7492,NA
325,ENGLISH,yellow,lightblue,grey,All the players are tied,half-half-all,half-all-half,16,F,2835,NA
325,ENGLISH,lightblue,royalblue,grey,We have a clear loser,none-half-all,all-half-none,19,T,2792,NA
325,ENGLISH,brown,yellow,pink,No player hit none of his shots,none-none-all,all-none-none,18,F,4230,NA
325,ENGLISH,yellow,lavender,royalblue,Player A was the star player of the round,most-none-all,most-none-all,-1,F,6923,yes
325,ENGLISH,wheat,tan,darkorange,Player A made none of his baskets,all-none-few,all-none-few,-3,F,18641,yes
325,ENGLISH,pink,tan,midnight,Player C messed up,all-all-none,all-all-none,-2,T,7568,yes
326,English,brown,lightblue,tan,Every player hit some of his shots,half-half-all,half-half-all,24,T,2255,NA
326,English,tan,midnight,yellow,Player C shot perfectly,none-all-all,none-all-all,25,T,2012,NA
326,English,grey,pink,purple,Every player hit all of his shots,none-half-all,all-half-none,26,F,2767,NA
326,English,wheat,tan,purple,Player C placed second,none-all-all,none-all-all,27,F,2697,NA
326,English,wheat,midnight,darkorange,Player A made no shots,half-half-half,half-half-half,20,F,3212,NA
326,English,lightblue,brown,royalblue,Every player hit none of his shots,none-half-half,none-half-half,21,F,3716,NA
326,English,lightblue,brown,tan,Player B placed second,half-all-all,all-half-all,22,T,3831,NA
326,English,lightblue,midnight,wheat,Player A shot perfectly,none-none-all,none-all-none,23,F,2563,NA
326,English,lightorange,lightblue,wheat,Player B made no shots,none-none-all,all-none-none,28,T,2204,NA
326,English,lightblue,brown,midnight,Exactly one player hit some of his shots,none-half-all,all-none-half,1,T,7142,NA
326,English,tan,lightorange,wheat,Exactly one player hit none of his shots,half-half-all,half-all-half,0,T,11839,NA
326,English,pink,tan,darkorange,Exactly one player hit all of his shots,none-all-all,all-all-none,3,F,5369,NA
326,English,pink,seafoam,brown,Someone did better than Player A,none-half-half,half-none-half,2,F,8270,NA
326,English,yellow,midnight,pink,Someone did better than Player C,none-half-half,half-half-none,5,T,4123,NA
326,English,midnight,yellow,purple,Most of the players made shots,none-none-all,none-all-none,4,F,10197,NA
326,English,darkorange,yellow,midnight,We have a clear loser,half-half-all,half-all-half,7,F,4200,NA
326,English,darkorange,lightorange,lightblue,Player B shot perfectly,half-all-all,half-all-all,6,T,4881,NA
326,English,lavender,yellow,wheat,Someone did better than Player B,half-all-all,half-all-all,9,F,4949,NA
326,English,tan,seafoam,brown,Player A tied with Player B,none-none-none,none-none-none,8,T,4507,NA
326,English,wheat,royalblue,yellow,All the players are tied,all-all-all,all-all-all,11,T,4632,NA
326,English,midnight,seafoam,tan,No player hit none of his shots,half-half-all,half-all-half,10,F,11990,NA
326,English,brown,pink,lavender,We have a clear winner,half-half-all,all-half-half,13,T,2667,NA
326,English,darkorange,seafoam,tan,Most of the players missed shots,half-half-all,all-half-half,12,F,3354,NA
326,English,pink,midnight,royalblue,No player hit all of his shots,none-all-all,all-all-none,15,F,1919,NA
326,English,brown,lavender,royalblue,Player A placed second,none-none-none,none-none-none,14,F,2442,NA
326,English,lightblue,royalblue,seafoam,No player hit some of his shots,none-half-all,all-none-half,17,F,7235,NA
326,English,darkorange,seafoam,wheat,Player C made no shots,none-half-half,half-none-half,16,F,3046,NA
326,English,royalblue,darkorange,yellow,Player B tied with Player C,half-all-all,all-half-all,19,F,2707,NA
326,English,lightblue,seafoam,pink,Player A tied with Player C,none-none-none,none-none-none,18,T,2781,NA
326,English,royalblue,lavender,tan,Player A was the star player of the round,most-none-all,most-none-all,-1,F,7674,yes
326,English,yellow,brown,lightblue,Player A made none of his baskets,all-none-few,all-none-few,-3,F,14100,yes
326,English,lightblue,midnight,lightorange,Player C messed up,all-all-none,all-all-none,-2,T,9384,yes
327,English,darkorange,purple,tan,Player B made no shots,half-all-all,half-all-all,24,F,2544,NA
327,English,lavender,lightorange,midnight,Player A placed second,none-half-half,half-none-half,25,F,5505,NA
327,English,purple,lightorange,brown,Most of the players made shots,none-none-all,none-all-none,26,F,4654,NA
327,English,lightblue,wheat,yellow,Player B shot perfectly,none-none-all,all-none-none,27,F,2682,NA
327,English,brown,pink,purple,Player A tied with Player B,none-none-all,none-none-all,20,T,3489,NA
327,English,tan,darkorange,lavender,No player hit none of his shots,half-all-all,all-half-all,21,T,6419,NA
327,English,pink,wheat,purple,Exactly one player hit all of his shots,none-none-all,none-all-none,22,T,3793,NA
327,English,royalblue,lavender,grey,Someone did better than Player B,none-none-all,none-none-all,23,T,4726,NA
327,English,purple,midnight,lavender,No player hit some of his shots,none-none-none,none-none-none,28,T,6496,NA
327,English,purple,lavender,brown,No player hit all of his shots,none-none-none,none-none-none,1,T,6642,NA
327,English,darkorange,lightorange,grey,Player C placed second,none-half-half,none-half-half,0,F,10925,NA
327,English,lavender,purple,lightorange,All the players are tied,none-none-half,half-none-none,3,F,8042,NA
327,English,yellow,lightorange,brown,Exactly one player hit none of his shots,none-none-half,none-half-none,2,T,8472,NA
327,English,seafoam,darkorange,purple,Someone did better than Player A,none-half-half,half-none-half,5,F,6955,NA
327,English,brown,purple,darkorange,Player B placed second,none-none-all,none-all-none,4,F,5444,NA
327,English,royalblue,yellow,midnight,We have a clear loser,all-all-all,all-all-all,7,F,4747,NA
327,English,royalblue,yellow,grey,Most of the players missed shots,half-all-all,half-all-all,6,F,6833,NA
327,English,yellow,royalblue,tan,Player C made no shots,half-all-all,half-all-all,9,F,4066,NA
327,English,lavender,tan,lightblue,Someone did better than Player C,none-none-all,all-none-none,8,T,5112,NA
327,English,yellow,grey,purple,We have a clear winner,none-none-all,none-all-none,11,T,5443,NA
327,English,lightblue,pink,midnight,Exactly one player hit some of his shots,none-none-all,all-none-none,10,T,9807,NA
327,English,lightblue,seafoam,purple,Player C shot perfectly,none-none-half,none-half-none,13,F,5809,NA
327,English,lightblue,tan,wheat,Player A tied with Player C,all-all-all,all-all-all,12,T,3309,NA
327,English,seafoam,wheat,lightorange,Every player hit none of his shots,half-half-all,half-half-all,15,F,5591,NA
327,English,pink,lightorange,darkorange,Every player hit all of his shots,none-none-half,none-half-none,14,F,4113,NA
327,English,royalblue,midnight,darkorange,Player A shot perfectly,half-half-all,half-half-all,17,F,3497,NA
327,English,pink,purple,wheat,Every player hit some of his shots,none-all-all,all-all-none,16,F,3317,NA
327,English,wheat,lavender,tan,Player B tied with Player C,none-none-all,none-none-all,19,F,3599,NA
327,English,midnight,brown,lightblue,Player A made no shots,half-half-all,half-half-all,18,F,2645,NA
327,English,yellow,midnight,brown,Player A was the star player of the round,most-none-all,most-none-all,-1,F,8785,yes
327,English,royalblue,yellow,wheat,Player A made none of his baskets,all-none-few,all-none-few,-3,F,8104,yes
327,English,lavender,midnight,grey,Player C messed up,all-all-none,all-all-none,-2,T,9132,yes
328,English,royalblue,lavender,darkorange,Player A tied with Player C,all-all-all,all-all-all,24,T,3511,NA
328,English,purple,yellow,darkorange,Player A tied with Player B,none-half-all,none-half-all,25,F,3604,NA
328,English,darkorange,seafoam,yellow,Most of the players missed shots,none-all-all,all-none-all,26,F,3567,NA
328,English,grey,yellow,midnight,Every player hit all of his shots,none-all-all,all-none-all,27,F,4692,NA
328,English,lavender,yellow,purple,No player hit some of his shots,none-none-half,half-none-none,20,F,3769,NA
328,English,lightorange,royalblue,yellow,Player A made no shots,all-all-all,all-all-all,21,F,3128,NA
328,English,pink,royalblue,purple,Most of the players made shots,none-none-none,none-none-none,22,F,3862,NA
328,English,pink,royalblue,brown,Someone did better than Player A,none-none-none,none-none-none,23,F,1932,NA
328,English,midnight,tan,pink,Player B placed second,all-all-all,all-all-all,28,T,4338,NA
328,English,lightblue,seafoam,lightorange,Player A placed second,none-none-none,none-none-none,1,T,10288,NA
328,English,midnight,purple,seafoam,No player hit all of his shots,half-half-half,half-half-half,0,T,5116,NA
328,English,pink,royalblue,lavender,We have a clear loser,none-none-none,none-none-none,3,F,6201,NA
328,English,pink,lavender,yellow,All the players are tied,none-half-half,none-half-half,2,F,5199,NA
328,English,wheat,lavender,lightblue,Player C shot perfectly,half-all-all,all-all-half,5,F,3290,NA
328,English,lavender,grey,royalblue,Every player hit none of his shots,all-all-all,all-all-all,4,F,4208,NA
328,English,brown,purple,seafoam,Every player hit some of his shots,none-none-all,none-all-none,7,F,3960,NA
328,English,darkorange,pink,lightblue,Player B shot perfectly,half-half-half,half-half-half,6,F,2448,NA
328,English,darkorange,grey,brown,Player B tied with Player C,none-none-all,none-all-none,9,F,4647,NA
328,English,royalblue,yellow,lightorange,Exactly one player hit all of his shots,all-all-all,all-all-all,8,F,3382,NA
328,English,yellow,seafoam,darkorange,We have a clear winner,none-all-all,none-all-all,11,F,2445,NA
328,English,royalblue,wheat,brown,Player C made no shots,none-none-all,none-none-all,10,F,4646,NA
328,English,royalblue,lightorange,darkorange,Exactly one player hit some of his shots,none-none-all,all-none-none,13,T,5933,NA
328,English,tan,wheat,darkorange,Someone did better than Player C,none-all-all,none-all-all,12,F,3286,NA
328,English,midnight,lavender,yellow,Exactly one player hit none of his shots,none-half-half,half-none-half,15,T,4343,NA
328,English,midnight,royalblue,brown,Player B made no shots,none-none-none,none-none-none,14,T,4370,NA
328,English,midnight,seafoam,purple,Player A shot perfectly,none-half-all,none-half-all,17,F,5970,NA
328,English,wheat,lightblue,tan,Player C placed second,none-none-half,half-none-none,16,T,6050,NA
328,English,darkorange,royalblue,pink,No player hit none of his shots,half-half-all,all-half-half,19,T,6180,NA
328,English,grey,purple,lavender,Someone did better than Player B,none-none-all,none-none-all,18,T,3285,NA
328,English,grey,lightorange,seafoam,Player A was the star player of the round,most-none-all,most-none-all,-1,F,8034,yes
328,English,lightblue,tan,purple,Player A made none of his baskets,all-none-few,all-none-few,-3,F,13175,yes
328,English,tan,midnight,wheat,Player C messed up,all-all-none,all-all-none,-2,T,6326,yes
329,English,grey,seafoam,pink,Someone did better than Player C,half-half-all,all-half-half,24,T,4845,NA
329,English,brown,grey,purple,Most of the players missed shots,none-all-all,all-none-all,25,F,5855,NA
329,English,seafoam,darkorange,yellow,Player A made no shots,half-half-all,half-all-half,26,F,4115,NA
329,English,royalblue,tan,pink,All the players are tied,none-none-half,half-none-none,27,F,2389,NA
329,English,tan,wheat,lightblue,Player A placed second,half-half-half,half-half-half,20,F,5952,NA
329,English,purple,wheat,yellow,No player hit some of his shots,half-half-all,half-half-all,21,F,8186,NA
329,English,tan,purple,seafoam,Exactly one player hit some of his shots,half-half-all,half-all-half,22,F,4898,NA
329,English,purple,grey,royalblue,Player A shot perfectly,none-none-all,all-none-none,23,T,2594,NA
329,English,yellow,tan,lightblue,Player B placed second,none-all-all,all-none-all,28,F,5695,NA
329,English,lavender,darkorange,yellow,Player C placed second,none-all-all,none-all-all,1,F,7195,NA
